"Time (s)";"Linear Acceleration x (m/s^2)";"Linear Acceleration y (m/s^2)";"Linear Acceleration z (m/s^2)"
3.750958100E-2;-4.401471138E0;2.587558508E0;-1.138824463E0
4.750958100E-2;-4.093921185E0;2.558680534E0;-1.345805168E0
5.750958100E-2;-3.943284512E0;2.273334265E0;-1.279993057E0
6.751008100E-2;-4.060891628E0;2.023949623E0;-1.428640366E0
7.750174700E-2;-3.859983444E0;1.425189495E0;-1.790212154E0
8.750024700E-2;-3.974673510E0;1.461001396E0;-1.798636913E0
9.750024700E-2;-4.077166557E0;1.495767593E0;-1.805586338E0
1.075002470E-1;-4.174141407E0;1.532871723E0;-1.812094212E0
1.175003890E-1;-3.289134741E0;1.870244503E0;-1.588484764E0
1.275003890E-1;-3.389225960E0;1.937595367E0;-1.580436707E0
1.375003890E-1;-3.485002279E0;2.107145548E0;-1.452548981E0
1.475004890E-1;-3.441817284E0;2.274991035E0;-1.240548134E0
1.575004890E-1;-3.774383545E0;2.289393425E0;-3.305864334E-1
1.674982390E-1;-3.865900755E0;2.340443373E0;-3.337917328E-1
1.774982390E-1;-3.898532867E0;2.398099899E0;-1.026058197E-1
1.874982390E-1;-3.831863880E0;2.426851749E0;1.812934875E-1
1.974977720E-1;-3.337831497E0;2.113449097E0;-2.282133102E-1
2.069962090E-1;-3.451884508E0;2.147897482E0;-2.200956345E-1
2.160535610E-1;-3.563320398E0;2.176800489E0;-2.097530365E-1
0.000000000E0;-3.149123430E0;1.987658739E0;-5.425472260E-1
1.000100000E-2;-3.346291780E0;1.737098336E0;-8.999252319E-1
2.000000000E-2;-2.826620340E0;1.540791750E0;-1.278497696E0
2.999950000E-2;-2.933454275E0;1.627455354E0;-1.467969894E0
3.999916600E-2;-2.913293362E0;1.577951312E0;-1.507829666E0
4.999916600E-2;-2.935378313E0;1.546610475E0;-1.338813782E0
5.999916600E-2;-3.415695429E0;1.949782610E0;-6.772546768E-1
6.999899900E-2;-3.743055820E0;2.193472385E0;-1.365594864E-1
7.999714100E-2;-4.299643517E0;2.452981949E0;4.701023102E-1
8.999714100E-2;-4.288133144E0;2.672193050E0;1.063278198E0
9.999702900E-2;-3.613725424E0;2.919225931E0;1.235259056E0
1.099969290E-1;-3.617099762E0;2.845135212E0;1.053604126E0
1.199968380E-1;-3.756666660E0;2.779814482E0;9.667577744E-1
1.299968380E-1;-3.829245567E0;2.580174446E0;4.562044144E-1
1.399968380E-1;-3.505122423E0;2.572954178E0;-5.768585205E-2
1.499966950E-1;-3.602084875E0;2.604398251E0;-6.569862366E-2
1.599961610E-1;-3.677640438E0;2.586451769E0;-2.557563782E-1
1.699961610E-1;-3.678786755E0;2.619259596E0;-5.139617920E-1
1.799961020E-1;-3.104100466E0;2.092394114E0;-4.998779297E-2
1.895501570E-1;-3.196039915E0;2.127004385E0;-3.055381775E-2
1.987066300E-1;-3.290497780E0;2.165267706E0;-9.849548340E-3
2.147326300E-1;-3.048683405E0;2.014433146E0;1.074657440E-1
2.247336300E-1;-2.821535110E0;1.978308320E0;3.692054749E-2
2.347336300E-1;-2.562945843E0;2.296705723E0;-3.205289841E-1
2.447331300E-1;-2.490878344E0;2.587106705E0;-9.167575836E-1
2.547331300E-1;-2.902256727E0;2.853333950E0;-1.792906761E0
2.647331300E-1;-3.552109003E0;2.795641899E0;-1.977704525E0
2.747329300E-1;-3.980145931E0;2.172842741E0;-1.601336002E0
2.847327630E-1;-3.833886385E0;2.090889215E0;-1.505922794E0
2.947326200E-1;-3.394782543E0;2.147718430E0;-1.409892082E0
3.047326200E-1;-2.253322124E0;1.672228098E0;-1.629384518E0
3.147325080E-1;-2.930061817E-1;1.038241625E0;-8.352947235E-1
3.247324080E-1;-3.130331039E-1;1.061982512E0;-8.295183182E-1
3.347324080E-1;-1.557123184E0;4.943507314E-1;-1.413662910E0
3.447324080E-1;-3.038786411E0;4.401555657E-1;-2.461990833E0
3.547323310E-1;-2.454318523E0;4.108476639E-1;-7.655324936E-1
3.647304020E-1;-2.411900759E0;4.011946917E-1;-7.817630768E-1
3.747293350E-1;-2.696653128E0;9.661189914E-1;-3.817214966E-1
3.847283970E-1;-3.261006355E0;2.916910648E0;-1.124657631E0
3.947274550E-1;-3.425165653E0;2.794909239E0;-1.319657326E0
4.042815100E-1;-3.413220167E0;2.838816166E0;-1.327774048E0
4.134379830E-1;-3.376068830E0;2.884384394E0;-1.345622063E0
4.294499830E-1;-2.818219900E0;3.097468376E0;-3.376626968E-1
4.394899830E-1;-2.118826866E0;3.068668604E0;8.458490372E-1
4.494639830E-1;-1.700983644E0;2.910022497E0;1.070079803E0
4.594509830E-1;-1.759067774E0;2.667385101E0;1.669146538E0
4.694426490E-1;-1.844900131E0;2.249771595E0;2.031611443E0
4.794363990E-1;-1.828680873E0;1.887745857E0;2.044124603E0
4.894311990E-1;-1.369483471E0;1.874301910E0;7.643690109E-1
4.994268650E-1;-1.557033062E0;1.887000322E0;1.092281342E0
5.094232930E-1;-1.698756218E0;1.566248178E0;1.363167763E0
5.194200430E-1;-2.171721458E0;1.264320970E0;1.566162109E0
5.294171540E-1;-2.796590328E0;1.149863243E0;1.805849075E0
5.394145540E-1;-2.838832855E0;1.093988895E0;1.832152367E0
5.494122810E-1;-3.014706612E0;1.022755384E0;1.065954208E0
5.594101970E-1;-3.405286789E0;8.757483959E-1;5.050201416E-1
5.694081970E-1;-4.066370010E0;1.014980674E0;-1.346054077E-1
5.794045540E-1;-3.963371992E0;9.776363373E-1;-1.814298630E-1
5.894028870E-1;-4.290844440E0;1.473832846E0;1.171579361E-1
5.994012620E-1;-4.417507648E0;1.616400480E0;2.763233185E-1
6.093997320E-1;-5.328170776E0;8.845837116E-1;6.718502045E-1
6.189523980E-1;-5.250485420E0;9.005734921E-1;6.345787048E-1
6.281075550E-1;-5.163105965E0;9.216127396E-1;5.933399200E-1
6.441345550E-1;-5.807146072E0;8.569692373E-1;7.130498886E-1
6.541345550E-1;-5.910682678E0;7.532951236E-1;1.645145416E-1
6.641335550E-1;-6.075999260E0;9.998011589E-2;3.065385818E-1
6.741330550E-1;-6.486850739E0;5.677837133E-2;2.462158203E-1
6.841327210E-1;-7.382653236E0;5.975788832E-1;2.432851791E-1
6.941297210E-1;-7.414945602E0;8.184992075E-1;2.161455154E-1
7.041303210E-1;-5.461325645E0;3.923670650E-1;5.664958954E-1
7.141301540E-1;-4.891627789E0;2.704087496E-1;7.990732193E-1
7.241301540E-1;-4.473697186E0;-7.511156797E-2;9.802465439E-1
6.794505160E-1;-4.335155487E0;2.213324308E-1;1.099526405E0
6.894504040E-1;-4.908900261E0;8.322997689E-1;6.529827118E-1
6.994476040E-1;-4.967535019E0;7.984559536E-1;6.194572449E-1
7.094475130E-1;-5.557224751E0;9.436856508E-1;4.397296906E-2
7.194475130E-1;-5.753665924E0;1.260527849E0;2.233409882E-2
7.294474360E-1;-5.377313137E0;1.453099728E0;7.464694977E-2
7.394457930E-1;-5.380079269E0;1.483843803E0;7.357025146E-2
7.494457930E-1;-5.423903465E0;1.385318995E0;3.518285751E-1
7.594457300E-1;-5.369620323E0;1.079302311E0;1.095473289E0
7.694456710E-1;-4.526050568E0;1.487992048E0;3.201306343E0
7.789997260E-1;-4.549130440E0;1.512899160E0;3.206903458E0
7.881561990E-1;-4.585348129E0;1.511268139E0;3.217773438E0
8.041831990E-1;-4.530282021E0;1.379586935E0;3.143553734E0
8.141831990E-1;-4.525407791E0;1.443361521E0;2.986361504E0
8.241821990E-1;-4.708969116E0;1.570200443E0;3.021349907E0
8.341681990E-1;-4.480430603E0;1.781938910E0;3.631148338E0
8.441591990E-1;-4.811434746E0;2.832863808E0;1.894704819E0
8.541524490E-1;-4.821800232E0;2.704296827E0;1.908514977E0
8.641468490E-1;-5.199763298E0;2.845992088E0;1.449623108E0
8.741421820E-1;-5.171963692E0;2.698325634E0;1.457416534E0
8.841393240E-1;-5.130271912E0;2.558766365E0;1.462195396E0
8.941393240E-1;-5.095416069E0;2.421368361E0;1.471045494E0
9.041392120E-1;-6.088983536E0;1.947629452E0;6.082687378E-1
9.141401120E-1;-6.070732117E0;1.865424037E0;6.735525131E-1
9.241401120E-1;-6.086783409E0;2.057996273E0;4.259939194E-1
9.341400280E-1;-5.768561363E0;2.003345490E0;-2.796077728E-1
9.441399510E-1;-4.534884930E0;2.027096033E0;-4.627981186E-1
9.541396650E-1;-4.594967842E0;1.602929115E0;-3.295669556E-1
9.641396650E-1;-5.898764133E0;2.303494930E0;-6.704244614E-1
9.741396650E-1;-6.645548820E0;1.700569630E0;-1.673642635E0
9.841396060E-1;-5.879955769E0;-1.517460346E-1;-3.391972542E0
9.936936610E-1;-5.917325020E0;-3.654365540E-1;-3.293635368E0
1.002850134E0;-5.916755199E0;-5.171728134E-1;-3.229671478E0
1.018877134E0;-5.686912060E0;-2.274744511E-1;-2.949549675E0
1.028876134E0;-5.496359825E0;2.162420750E-1;-1.765133858E0
1.038856134E0;-5.354218006E0;-7.294964790E-2;-2.241458893E-1
1.048856134E0;-5.166998863E0;1.002705097E-1;1.693840027E-1
1.058856467E0;-4.549349308E0;2.250323296E-1;6.973094940E-1
1.068856467E0;-3.983488083E0;4.624371529E-1;1.399020195E0
1.078856467E0;-3.959876060E0;8.300402164E-1;1.494221687E0
1.088856633E0;-4.352547646E0;1.103451490E0;1.240811348E0
1.098856775E0;-4.381814957E0;9.837744236E-1;1.109487534E0
1.108856775E0;-4.197977066E0;9.677073956E-1;1.035648346E0
1.118856775E0;-3.628948212E0;1.140676022E0;-2.239875793E-1
1.128856575E0;-3.708085537E0;1.065557957E0;-1.649732590E-1
1.138856665E0;-3.611603260E0;9.057817459E-1;-4.838461876E-1
1.148856665E0;-3.118547678E0;1.088730812E0;-1.731255054E0
1.158856665E0;-3.160379410E0;1.011308193E0;-2.282877445E0
1.168856665E0;-3.186294556E0;1.022737503E0;-2.279860973E0
1.178856731E0;-2.870138168E0;8.200259209E-1;-1.845482349E0
1.188856793E0;-2.483949184E0;3.560991287E-1;-1.209932327E0
1.198856793E0;-2.443128586E0;2.841138840E-1;5.035400391E-3
1.208410904E0;-2.394722223E0;3.995773792E-1;-6.274890900E-2
1.217567430E0;-2.349947691E0;5.154089928E-1;-1.272401810E-1
1.233594430E0;-2.428956270E0;4.004869461E-1;4.514217377E-2
1.243593430E0;-2.241015196E0;2.694880962E-1;1.002569199E-1
1.253593430E0;-1.842428923E0;-1.332998276E-1;-3.071823120E-1
1.263593930E0;-2.452099800E0;3.751659393E-2;-2.290372849E-1
1.273593930E0;-3.772047520E0;1.128647089E0;1.431596756E0
1.283593930E0;-3.847690105E0;1.590181589E0;7.828302383E-1
1.293591930E0;-2.894947290E0;4.182245731E-1;3.699226379E-1
1.303592096E0;-2.472664595E0;-3.200213909E-1;-3.617343903E-1
1.313592238E0;-2.624218702E0;2.431120872E-1;-6.814374924E-1
1.323592238E0;-2.524612188E0;3.873422146E-1;-2.962837219E-1
1.333592238E0;-1.816412687E0;1.680440903E-1;6.286888123E-1
1.343592238E0;-1.910367012E0;2.045695782E-1;6.519727707E-1
1.353592328E0;-1.740139246E0;2.841305733E-1;4.689006805E-1
1.363592411E0;-1.889926314E0;3.969080448E-1;-8.727645874E-2
1.373592411E0;-2.282083035E0;5.665440559E-1;-4.013757706E-1
1.383590553E0;-2.339748859E0;5.977070332E-1;-3.875389099E-1
1.393590619E0;-2.483971119E0;6.285610199E-1;-3.366432190E-1
1.403590619E0;-2.738838196E0;6.342153549E-1;-3.904514313E-1
1.413590619E0;-3.118380070E0;7.343726158E-1;-7.068228722E-1
1.423144730E0;-3.188795805E0;7.678413391E-1;-6.857724190E-1
1.432301256E0;-3.264657974E0;7.902517319E-1;-6.579613686E-1
1.448328256E0;-3.312541962E0;8.525009155E-1;-9.907555580E-1
1.458327256E0;-3.464218140E0;9.870746136E-1;-1.447528362E0
1.468307256E0;-3.585131645E0;1.152763844E0;-1.961568356E0
1.478307756E0;-3.606709003E0;1.291391134E0;-2.104515076E0
1.488307756E0;-3.595250368E0;1.449463367E0;-2.081169128E0
1.498307756E0;-3.617791891E0;1.574601173E0;-1.918558121E0
1.508307756E0;-3.690027714E0;1.696278334E0;-1.490429878E0
1.518307756E0;-3.745395660E0;1.770680189E0;-1.346067429E0
1.528307898E0;-3.795311451E0;1.877987623E0;-1.169560432E0
1.538306398E0;-3.797986984E0;1.972548962E0;-8.279914856E-1
1.548306398E0;-3.242753267E0;1.944307566E0;-1.857190132E-1
1.558306498E0;-3.378398657E0;2.011979580E0;-1.207337379E-1
1.568306498E0;-2.858174801E0;1.862032652E0;1.043319702E-3
1.578306498E0;-2.669687033E0;1.977917671E0;9.007644653E-1
1.588306498E0;-2.519779682E0;1.995889187E0;1.381659508E0
1.598304640E0;-2.640543938E0;2.108851433E0;1.439260006E0
1.608304706E0;-1.674145699E0;1.457465768E0;2.668642521E0
1.618304706E0;-1.487179279E0;1.131334305E0;3.184303284E0
1.628304706E0;-2.154541254E0;1.319005966E0;3.351158619E0
1.637859261E0;-2.211006880E0;1.385083318E0;3.381128788E0
1.647015787E0;-2.255485296E0;1.434871078E0;3.405973434E0
1.663042787E0;-2.432656050E0;1.482755065E0;3.262321472E0
1.673042787E0;-2.766364336E0;1.500998735E0;2.958069801E0
1.683041787E0;-3.030704498E0;1.545893669E0;2.753277779E0
1.693041787E0;-3.174612522E0;1.656249285E0;2.667627335E0
1.703041787E0;-3.303478956E0;1.758488536E0;2.542432308E0
1.713041537E0;-3.528446436E0;1.849403143E0;2.404036045E0
1.723041337E0;-3.600508690E0;1.951735139E0;2.327916622E0
1.733041170E0;-3.607576370E0;1.971871257E0;2.382165432E0
1.743041170E0;-3.419963598E0;1.924850225E0;2.580763340E0
1.753039545E0;-3.172706127E0;1.929623365E0;2.628214836E0
1.753139545E0;-2.929319143E0;1.834549308E0;2.605565071E0
1.763136845E0;-2.948202372E0;1.865748286E0;2.616227627E0
1.773136845E0;-2.828439713E0;1.753549218E0;2.671082497E0
1.783136761E0;-2.797966003E0;1.672125459E0;2.703552246E0
1.793136684E0;-2.751120090E0;1.557046533E0;2.400007725E0
1.802563326E0;-2.760353088E0;1.571188807E0;2.405683041E0
1.811494859E0;-2.762518406E0;1.577347636E0;2.406608105E0
1.827521859E0;-2.762518406E0;1.577347636E0;2.406608105E0
1.837520859E0;-2.938236713E0;1.610535860E0;2.106544495E0
1.847520859E0;-3.112139940E0;1.727391243E0;1.438096046E0
1.855508359E0;-3.077209234E0;1.698667049E0;1.413213730E0
1.861502692E0;-3.055904627E0;1.681392670E0;1.398182392E0
1.869006942E0;-3.060693026E0;1.695758104E0;1.295231342E0
1.877006942E0;-2.989818811E0;1.781050563E0;9.565801620E-1
1.885340275E0;-2.906845808E0;1.815274239E0;7.721743584E-1
1.893911703E0;-2.840287447E0;1.892682910E0;5.282230377E-1
1.902661828E0;-2.674863338E0;1.954329967E0;4.273567200E-1
1.911550716E0;-2.461677313E0;1.922612906E0;4.340634346E-1
1.920552616E0;-2.268664598E0;1.778973818E0;4.766936302E-1
1.929645070E0;-2.085758686E0;1.708786964E0;6.393280029E-1
1.938811736E0;-2.069204807E0;1.763478160E0;7.795114517E-1
1.948042505E0;-2.071938038E0;1.816862702E0;9.389052391E-1
1.957328219E0;-2.046988487E0;1.784377098E0;1.016400814E0
1.966659819E0;-2.030777454E0;1.773989201E0;1.005658627E0
1.976034881E0;-1.671843052E0;1.265846252E0;1.764308453E0
1.985446645E0;-1.479329586E0;1.133444071E0;1.961465359E0
1.994891145E0;-1.441688061E0;9.989762306E-1;2.017789841E0
2.004364881E0;-1.416225433E0;9.918156862E-1;1.999680042E0
2.013864881E0;-1.556715488E0;9.061940908E-1;1.659192085E0
2.023388690E0;-1.665453434E0;9.283633232E-1;1.363183975E0
2.032933553E0;-1.753705025E0;9.509792328E-1;1.166251659E0
2.042149944E0;-1.705622196E0;9.346573353E-1;1.134023666E0
2.051065527E0;-1.654264927E0;9.166729450E-1;1.100207329E0
2.067092527E0;-1.795522690E0;1.038777113E0;7.817792892E-1
2.077091527E0;-1.815083742E0;1.125174761E0;5.042595863E-1
2.087072527E0;-2.017653465E0;1.285837293E0;1.331424713E-1
2.097073027E0;-2.094995022E0;1.364677310E0;-9.687948227E-2
2.107073027E0;-2.118741512E0;1.528565288E0;-3.024430275E-1
2.117073027E0;-2.114438295E0;1.492759347E0;-4.045500755E-1
2.127073027E0;-2.125425100E0;1.424899340E0;-2.520480156E-1
2.137073193E0;-2.230820894E0;1.445607066E0;1.377105713E-2
2.147073335E0;-2.345583439E0;1.563346148E0;5.009460449E-2
2.157077460E0;-2.460735559E0;1.691136003E0;-9.356880188E-2
2.167077460E0;-2.390905380E0;1.679450512E0;-1.282753944E-1
2.177077460E0;-2.367897034E0;1.682303309E0;-1.436343193E-1
2.187077550E0;-2.150526524E0;1.571601868E0;1.788940430E-1
2.197077550E0;-1.758038044E0;1.392742276E0;6.267528534E-1
2.207077550E0;-1.438479662E0;1.184745312E0;1.221676826E0
2.216504264E0;-1.437001944E0;1.203294873E0;1.217178345E0
2.225435930E0;-1.434992075E0;1.220933795E0;1.212558746E0
2.241460930E0;-1.418232679E0;1.170655608E0;1.365787506E0
2.251460930E0;-1.427929163E0;1.125406027E0;1.488932610E0
2.261460930E0;-1.480695009E0;1.011001468E0;1.603356361E0
2.268447930E0;-1.453802347E0;1.040240884E0;1.581129074E0
2.273772596E0;-1.436780214E0;1.053148508E0;1.568183899E0
2.281272846E0;-1.422415018E0;9.310443401E-1;1.549030304E0
2.291271846E0;-1.515118837E0;7.069016695E-1;1.393444061E0
2.301271846E0;-1.709985256E0;6.907854080E-1;1.230406761E0
2.311272346E0;-2.143501282E0;8.078889847E-1;8.678369522E-1
2.321272346E0;-2.406726360E0;9.060502052E-1;4.790029526E-1
2.331272346E0;-2.591305971E0;9.277464151E-1;-1.510620117E-3
2.341272346E0;-2.633598089E0;9.115905762E-1;-3.417911530E-1
2.351272512E0;-2.708323479E0;9.843358994E-1;-8.028564453E-1
2.361272654E0;-2.719719410E0;1.055584550E0;-1.157618523E0
2.371272654E0;-2.729548454E0;1.158068895E0;-1.441684246E0
2.381272765E0;-2.832233906E0;1.270903826E0;-1.905032635E0
2.391272865E0;-2.790621281E0;1.234432697E0;-1.920094013E0
2.401272865E0;-2.951305389E0;1.308234811E0;-2.048977852E0
2.411272865E0;-3.115608692E0;1.441101432E0;-2.105257034E0
2.421272865E0;-3.137196064E0;1.427467465E0;-2.044198990E0
2.431128436E0;-3.039206028E0;1.415867925E0;-2.091928482E0
2.440460636E0;-2.987194538E0;1.413959861E0;-2.117604256E0
2.449835698E0;-3.279287338E0;1.564794660E0;-1.602850914E0
2.459247462E0;-3.375867367E0;1.607668281E0;-1.323648930E0
2.468691962E0;-3.448872805E0;1.614598274E0;-1.190246582E0
2.477743277E0;-3.406006575E0;1.634150624E0;-1.214890480E0
2.486441977E0;-3.379922628E0;1.670786381E0;-1.234795570E0
2.502467977E0;-3.365557432E0;1.900629759E0;4.370784760E-2
2.512467977E0;-2.956941128E0;1.854498267E0;9.173965454E-1
2.522467977E0;-2.605897903E0;1.775525451E0;1.637428284E0
2.532468477E0;-1.955770254E0;1.539997220E0;2.809135437E0
2.542468477E0;-1.699706554E0;1.436056018E0;3.464479446E0
2.552468477E0;-1.369286060E0;1.274186492E0;4.259424210E0
2.562468477E0;-1.284013271E0;1.224531531E0;4.589200020E0
2.572468477E0;-1.277373791E0;1.227283120E0;4.891927719E0
2.582468619E0;-1.247773170E0;1.290494800E0;4.952400208E0
2.592468619E0;-1.250946999E0;1.290109873E0;4.802946091E0
2.602468619E0;-1.266595840E0;1.258859754E0;3.912624359E0
2.612470119E0;-1.215664387E0;1.290463090E0;3.885406494E0
2.622471028E0;-1.297246695E0;1.417753220E0;3.267518997E0
2.632472778E0;-1.618705750E0;1.573763013E0;2.062705040E0
2.642472778E0;-2.199345112E0;1.915127754E0;4.832077026E-1
2.652470920E0;-2.115598440E0;1.868487358E0;4.528417587E-1
2.662470986E0;-2.200209379E0;1.909537196E0;-4.952335358E-2
2.672470986E0;-2.448499680E0;2.041341305E0;-9.064912796E-1
2.682470986E0;-2.746588469E0;2.406562328E0;-2.268630505E0
2.692025152E0;-2.683067799E0;2.303384781E0;-2.278003216E0
2.701181730E0;-2.632922649E0;2.185661793E0;-2.278268337E0
2.717214730E0;-2.671229839E0;2.235939980E0;-2.479381084E0
2.727206730E0;-2.732876778E0;2.259956598E0;-3.089221954E0
2.737206730E0;-2.780298710E0;2.292842865E0;-3.636152267E0
2.747207230E0;-2.774666786E0;2.238890648E0;-3.851372719E0
2.757205230E0;-2.797606945E0;2.221660376E0;-3.978349686E0
2.767205230E0;-2.865953922E0;2.262244225E0;-4.282494068E0
2.777205430E0;-2.953571081E0;2.301389217E0;-4.302770138E0
2.787205596E0;-2.990474939E0;2.272121429E0;-4.275444984E0
2.797205596E0;-2.999620676E0;2.275951385E0;-4.240860939E0
2.807205596E0;-2.964874983E0;2.485118389E0;-4.014984608E0
2.817205596E0;-2.512559414E0;2.580188036E0;-2.653463364E0
2.827003096E0;-2.590055704E0;2.505739212E0;-2.600619316E0
2.836092550E0;-2.636413574E0;2.478791714E0;-2.573575020E0
2.836192550E0;-2.392205000E0;2.481185913E0;-1.706873894E0
2.845423319E0;-2.090787411E0;2.466457367E0;-8.409962654E-1
2.854709104E0;-1.122530460E0;2.148526430E0;1.148540497E0
2.864040704E0;-1.180867672E0;2.177062988E0;1.305205345E0
2.873414954E0;-9.914698601E-1;2.079066992E0;2.036500931E0
2.882826718E0;-6.600050926E-1;1.908015728E0;3.052663803E0
2.892271162E0;-5.573041439E-1;1.103380442E0;3.794321060E0
2.901322425E0;-6.374795437E-1;1.137082815E0;3.824147224E0
2.910021175E0;-6.932380199E-1;1.169910908E0;3.842775345E0
2.926046175E0;-9.733595848E-1;9.304907322E-1;3.847563744E0
2.936046175E0;-1.317456722E0;8.721516132E-1;3.811355591E0
2.946047175E0;-1.881932735E0;7.491953373E-1;3.605762482E0
2.956034675E0;-2.200708151E0;6.734840870E-1;3.373786926E0
2.966034675E0;-2.574616671E0;5.778408051E-1;2.943460464E0
2.976034675E0;-2.923407078E0;5.580198765E-1;2.331117630E0
2.986034675E0;-3.434131861E0;6.536033154E-1;1.275246620E0
2.996034841E0;-3.640948296E0;6.791164875E-1;8.091917038E-1
3.006034841E0;-3.952932596E0;7.417099476E-1;7.882308960E-2
3.016031466E0;-4.188470840E0;7.597706318E-1;-4.530096054E-1
3.026031577E0;-4.698295593E0;8.587825298E-1;-1.188884258E0
3.036031577E0;-4.690089226E0;8.422839642E-1;-1.238733768E0
3.046031577E0;-4.826902390E0;8.616607189E-1;-1.393804073E0
3.056031577E0;-5.076774597E0;8.999752998E-1;-1.462489128E0
3.066031653E0;-5.149014473E0;8.595349789E-1;-1.205090523E0
3.076030010E0;-5.151790142E0;8.447911739E-1;-1.186308384E0
3.086029210E0;-5.033123493E0;7.743957043E-1;-1.003603935E0
3.096029210E0;-4.834982395E0;7.407341003E-1;-7.238717079E-1
3.106029268E0;-4.101370811E0;5.476865768E-1;5.999193192E-1
3.115583434E0;-4.149006844E0;5.741918087E-1;6.144218445E-1
3.124740012E0;-4.200656414E0;6.101431847E-1;6.285734177E-1
3.140765012E0;-3.999543667E0;5.383172035E-1;1.006857872E0
3.150765012E0;-3.799710035E0;5.132248402E-1;1.736176491E0
3.160746012E0;-3.735994339E0;4.982068539E-1;2.693717003E0
3.170741512E0;-3.734331131E0;5.458679199E-1;3.099252701E0
3.180741512E0;-3.622555733E0;4.275777340E-1;3.960554123E0
3.190741762E0;-3.585547209E0;3.185329437E-1;4.260240555E0
3.200741962E0;-3.586240053E0;2.680840492E-1;4.357002258E0
3.210741962E0;-3.721133471E0;2.907133102E-1;4.214384079E0
3.220741962E0;-3.926387787E0;4.069962502E-1;4.042242050E0
3.230741962E0;-4.156626225E0;5.665724277E-1;3.635380745E0
3.240742073E0;-4.223196030E0;6.057970524E-1;3.377982140E0
3.250743373E0;-4.256894112E0;6.013207436E-1;3.397160530E0
3.260743373E0;-4.313714504E0;6.363019943E-1;2.719158173E0
3.270743456E0;-4.358693600E0;7.032346725E-1;2.144879341E0
3.280743532E0;-4.466720104E0;7.889468670E-1;1.816345215E0
3.290742103E0;-4.557493687E0;7.310729027E-1;1.882427216E0
3.300742036E0;-4.783869743E0;9.942178726E-1;9.384231567E-1
3.310742036E0;-5.008440018E0;1.244585037E0;3.321247101E-1
3.320742094E0;-5.092652321E0;1.322163105E0;1.932878494E-1
3.330296260E0;-5.143771648E0;1.297829866E0;2.308645248E-1
3.339452838E0;-5.197269917E0;1.283846617E0;2.675619125E-1
3.355477838E0;-5.077559948E0;1.475382566E0;-3.740844727E-1
3.365478838E0;-4.936352253E0;1.426232815E0;-6.051907539E-1
3.375478838E0;-4.803698540E0;1.383572102E0;-5.911450386E-1
3.385478338E0;-4.467167854E0;1.235416412E0;-4.376230240E-1
3.395478004E0;-4.288042545E0;1.117946863E0;-3.071575165E-1
3.405477754E0;-3.816061974E0;8.807969093E-1;5.334234238E-2
3.415477754E0;-3.680001020E0;8.169565201E-1;3.342475891E-1
3.425477587E0;-3.629603863E0;6.387432814E-1;7.296490669E-1
3.435477444E0;-3.720880985E0;5.453901291E-1;1.045850754E0
3.445477444E0;-4.010820866E0;4.039014578E-1;1.469991207E0
3.455477332E0;-4.197894096E0;3.520635366E-1;1.633444786E0
3.465478632E0;-4.262228966E0;4.441721439E-1;1.661787033E0
3.475478541E0;-4.557605743E0;2.704948187E-1;1.998669147E0
3.485478457E0;-4.540723801E0;2.315422297E-1;2.018791199E0
3.495478457E0;-4.489632607E0;2.793408632E-1;1.988544941E0
3.505480957E0;-4.194974899E0;4.111757278E-1;2.063478470E0
3.515480890E0;-4.080021858E0;4.967387915E-1;2.264503002E0
3.525480827E0;-3.490700960E0;7.680000067E-1;2.615691185E0
3.535480827E0;-1.496065140E0;1.091590524E0;3.123379230E0
3.545034938E0;-1.598293304E0;1.170260429E0;3.202950954E0
3.554191464E0;-1.689994812E0;1.248096704E0;3.276190281E0
3.570216464E0;-1.323382854E0;1.274433136E0;3.328862667E0
3.580217464E0;-4.802217484E-1;1.502473474E0;3.493546486E0
3.590217464E0;-1.979069710E-1;1.836655378E0;3.730060577E0
3.600210964E0;2.892570496E-1;2.462376595E0;4.047544956E0
3.610210630E0;6.582593918E-1;2.714587927E0;4.066884041E0
3.620210380E0;1.250370026E0;2.746601105E0;3.836830616E0
3.630210380E0;1.548946381E0;2.750294924E0;3.553652287E0
3.640210380E0;1.716357231E0;2.950330734E0;2.939736843E0
3.650210237E0;1.606312752E0;3.174410820E0;2.319949150E0
3.660211987E0;1.383772850E0;3.276279688E0;1.831291676E0
3.670211987E0;6.993317604E-1;3.308150053E0;4.471702576E-1
3.680211887E0;7.026739120E-1;3.159679890E0;4.657869339E-1
3.690211341E0;5.346894264E-1;2.949204445E0;1.025152206E-2
3.700211257E0;4.414110184E-1;2.749862194E0;-7.777762413E-1
3.710211257E0;-3.011302948E-1;2.615252018E0;-2.078522205E0
3.720210042E0;-2.497801781E-1;2.258529186E0;-2.035788536E0
3.730209975E0;-4.988636971E-1;2.190827847E0;-2.449113846E0
3.740209975E0;-9.942016602E-1;2.252928972E0;-2.822912693E0
3.750209975E0;-1.270745754E0;2.239306688E0;-2.756393909E0
3.759764030E0;-1.207873344E0;2.110352993E0;-2.769125938E0
3.768920503E0;-1.140635490E0;2.002245665E0;-2.791192055E0
3.784946503E0;-1.435122013E0;2.088436842E0;-2.293198109E0
3.794946503E0;-1.623031139E0;1.993185997E0;-2.136262417E0
3.804920503E0;-1.756213665E0;2.001756430E0;-2.104674816E0
3.814918503E0;-1.789741993E0;1.832513809E0;-2.132134914E0
3.824918503E0;-1.982443810E0;1.523211002E0;-1.680786610E0
3.834918753E0;-2.308001518E0;1.464244127E0;-4.966740608E-1
3.844918753E0;-1.740479469E0;1.563255310E0;5.115394592E-1
3.854918753E0;-1.360807896E0;1.454610586E0;6.440787315E-1
3.864918753E0;-9.839372635E-1;1.292811632E0;7.653899193E-1
3.874918878E0;-9.348511696E-1;1.501622200E0;7.689566612E-1
3.884918989E0;-1.218589306E0;1.707030535E0;5.111727715E-1
3.894918989E0;-1.230670929E0;1.573838472E0;5.861968994E-1
3.904919261E0;-1.335546017E0;1.449242830E0;2.876930237E-1
3.914919344E0;-1.759362698E0;1.784695387E0;2.356958389E-2
3.924919344E0;-2.067955017E0;2.488688946E0;-1.882277489E0
3.934918129E0;-2.351624489E0;2.064967632E0;-1.293912411E0
3.944918129E0;-2.277635574E0;2.087394238E0;-2.072585106E0
3.954918191E0;-2.421074867E0;2.410384178E0;-3.898783445E0
3.964918249E0;-2.114944935E0;1.818178177E0;-4.155904770E0
3.974472582E0;-2.183770657E0;1.700540066E0;-3.933229208E0
3.983629108E0;-2.196488380E0;1.612335682E0;-3.816301107E0
3.999656108E0;-1.695801258E0;9.251999855E-1;-5.650259495E0
4.009656108E0;-2.608162880E0;3.368420601E-1;-5.468840599E0
4.019635108E0;-3.635130167E0;1.479482651E-1;-4.567710400E0
4.029633608E0;-4.019851685E0;4.203372002E-1;-3.506842136E0
4.039633274E0;-4.138004780E0;6.240077019E-1;-2.395009756E0
4.049633274E0;-3.390763044E0;3.589868546E-1;-1.212792158E0
4.059633274E0;-9.589776993E-1;5.082101822E-1;2.061583519E0
4.069633107E0;6.810016632E-1;3.551015854E-1;3.390171051E0
4.079632964E0;3.243817329E0;2.033615112E-2;5.160474777E0
4.089632839E0;6.477119923E0;-3.811631203E-1;6.940089226E0
4.099632839E0;8.002954483E0;-7.035555840E-1;7.705833912E0
4.109632739E0;7.991153240E0;-6.807007790E-1;7.699087620E0
4.119632648E0;6.818551540E0;-3.679914474E-1;7.055069923E0
4.129632648E0;4.693391323E0;-2.831177711E-1;5.735657692E0
4.139632571E0;1.436835289E0;-1.977739334E-1;2.522520065E0
4.149630999E0;1.767273426E0;-4.664506912E-1;2.388375282E0
4.149730999E0;1.153636932E0;-4.918155670E-1;1.302915573E0
4.159730936E0;1.799740791E-1;-3.167657852E-1;-1.954231262E-1
4.169730936E0;-1.635502338E0;1.277360916E-1;-2.320522785E0
4.179285047E0;-1.489316463E0;2.197170258E-2;-2.359274387E0
4.188441573E0;-1.351704597E0;-6.806659698E-2;-2.400809288E0
4.204466573E0;-1.741959333E0;-5.817413330E-3;-2.709661245E0
4.214467573E0;-2.243374109E0;6.207942963E-3;-3.035562038E0
4.224446573E0;-2.554879427E0;1.957674026E-1;-3.087559223E0
4.234446073E0;-2.520759344E0;3.450360298E-1;-3.125801086E0
4.244445739E0;-2.438913584E0;4.152417183E-1;-2.955528975E0
4.254445739E0;-2.281821489E0;4.543333054E-1;-2.494322062E0
4.264445739E0;-2.136681318E0;4.954605103E-1;-2.169270992E0
4.274445572E0;-1.883423328E0;6.540250778E-1;-1.817856312E0
4.284445429E0;-1.787023067E0;6.283764839E-1;-1.873977184E0
4.294445429E0;-1.973708868E0;7.114391327E-1;-1.991763592E0
4.304445317E0;-2.420957804E0;1.069417953E0;-1.737872601E0
4.314445217E0;-2.400830984E0;1.051626205E0;-1.731965542E0
4.324445126E0;-2.488762617E0;1.082253933E0;-1.689494133E0
4.334445126E0;-2.619957447E0;1.101606369E0;-1.723238468E0
4.344445126E0;-2.713792801E0;1.177833557E0;-1.751285076E0
4.354157483E0;-2.710927010E0;1.120769978E0;-1.689008713E0
4.363355683E0;-2.711751938E0;1.056212902E0;-1.613693237E0
4.372730870E0;-3.037363529E0;1.444073200E0;-1.498771667E0
4.382142634E0;-3.236040115E0;1.667659760E0;-1.437604904E0
4.391587022E0;-3.347702265E0;2.053595543E0;-1.182672501E0
4.400638232E0;-3.353577375E0;1.981275558E0;-1.087146282E0
4.409336882E0;-3.356619596E0;1.909112453E0;-9.916014671E-1
4.425362882E0;-3.457175970E0;2.143743992E0;-9.389290810E-1
4.435363882E0;-3.598566055E0;2.445698738E0;-6.642274857E-1
4.445363882E0;-3.759799480E0;2.597728729E0;-5.137047768E-1
4.455363382E0;-3.745953560E0;2.667169094E0;-5.106782913E-1
4.465363382E0;-3.638473511E0;2.720864296E0;-4.874176979E-1
4.475363382E0;-3.265879154E0;2.796608448E0;-5.228261948E-1
4.485363182E0;-3.010771751E0;2.779762745E0;-1.632380486E-1
4.495363015E0;-2.994831562E0;2.738727093E0;2.245330811E-2
4.505362872E0;-3.016157627E0;2.682128906E0;3.248343468E-1
4.515362872E0;-3.044280529E0;2.598704815E0;5.599684715E-1
4.525362760E0;-3.098739147E0;2.440513611E0;5.484933853E-1
4.535362660E0;-3.682026148E0;2.335845470E0;-3.058624268E-2
4.545362660E0;-3.568102360E0;1.901261806E0;-5.977203846E-1
4.555362660E0;-3.619791269E0;1.687848091E0;-8.535709381E-1
4.565362583E0;-3.181665659E0;1.235299110E0;-1.413506269E0
4.575360654E0;-3.163460493E0;1.180776596E0;-1.329446554E0
4.585360587E0;-2.905277252E0;8.407878876E-1;-1.293065310E0
4.595360587E0;-2.547451973E0;4.198093414E-1;-1.098474026E0
4.605360528E0;-2.586863279E0;8.127689362E-2;-9.159157276E-1
4.614914583E0;-2.553951025E0;7.777786255E-2;-9.441916943E-1
4.624071056E0;-2.509765863E0;7.669973373E-2;-9.884274006E-1
4.640098056E0;-2.761157036E0;9.662151337E-3;-7.298536301E-1
4.650097056E0;-2.916712523E0;-1.902914047E-2;-3.672792912E-1
4.660097056E0;-3.065092564E0;-1.421809196E-1;-3.317899704E-1
4.670089556E0;-3.071878433E0;-1.583180428E-1;-5.984642506E-1
4.680089889E0;-3.204390764E0;-1.422510147E-1;-1.227006435E0
4.690090139E0;-3.490128040E0;5.353593826E-2;-1.550576925E0
4.700090139E0;-3.582173586E0;2.362694740E-1;-1.534302711E0
4.710090139E0;-3.687585115E0;6.639213562E-1;-1.484994888E0
4.720090281E0;-3.764168024E0;1.116377354E0;-1.304503679E0
4.730090281E0;-3.491945267E0;1.432479382E0;2.080106735E-1
4.740090281E0;-2.776277304E0;1.940627098E0;1.669618130E0
4.750090281E0;-2.817249537E0;1.964799881E0;1.662876606E0
4.760090371E0;-2.686405897E0;2.300256729E0;2.020055294E0
4.770090454E0;-2.165075779E0;2.725445747E0;2.378531933E0
4.780090454E0;-8.625385761E-1;3.526553631E0;1.378507614E-1
4.790088596E0;-9.497659206E-1;3.527449131E0;2.163319588E-1
4.800088662E0;-9.341557026E-1;3.965146065E0;-3.157520294E-2
4.810088662E0;-6.190526485E-1;4.034396172E0;1.419606209E-1
4.820088662E0;2.029457092E-1;2.965322495E0;6.100311279E-1
4.829642773E0;1.616854668E-1;2.975910187E0;6.329035759E-1
4.838799299E0;1.298141479E-1;2.984454155E0;6.502618790E-1
4.854826299E0;1.202373505E-1;2.785735130E0;6.382908821E-1
4.864826299E0;-5.041670799E-1;2.491592407E0;3.388390541E-1
4.874825299E0;-1.130893469E0;2.506531715E0;1.417708397E-1
4.884825299E0;-2.186103582E0;2.408025742E0;-2.229733467E-1
4.894825299E0;-2.694789648E0;2.173384666E0;-4.867336750E-1
4.904825049E0;-3.047382832E0;1.774956703E0;-7.746744156E-1
4.914824849E0;-3.388166428E0;1.306176662E0;-1.238367558E0
4.924824682E0;-3.907229424E0;1.444169044E0;-1.200062037E0
4.934824682E0;-5.198313713E0;2.444005966E0;-1.178278208E0
4.944824557E0;-5.515763283E0;2.534351349E0;-1.502585888E0
4.954824445E0;-5.952271938E0;2.419953346E0;-2.092429638E0
4.964824345E0;-5.965168476E0;2.361662865E0;-1.935776353E0
4.974824254E0;-6.124691963E0;1.118563652E0;-2.413741589E0
4.984824254E0;-6.437418938E0;6.629085541E-1;-2.561848879E0
4.994824177E0;-6.339775562E0;3.259916306E-1;-2.681505203E0
5.004823105E0;-6.374637604E0;2.531776428E-1;-2.398584366E0
5.014823105E0;-6.666185379E0;-5.378975868E-1;-2.810177326E0
5.024823042E0;-8.118911743E0;-5.839805603E-1;-2.731501818E0
5.034822983E0;-8.413644791E0;-2.363989353E0;-2.592976093E0
5.044377038E0;-8.479181290E0;-2.356766224E0;-2.480676413E0
5.053533511E0;-8.562532425E0;-2.339652538E0;-2.359574080E0
5.069560511E0;-8.581686020E0;-2.617380142E0;-2.349997282E0
5.079560511E0;-8.720636368E0;-3.004414082E0;-2.267368555E0
5.089559511E0;-9.346538544E0;-3.143096924E0;-2.152862549E0
5.099559011E0;-1.043215084E1;-3.467686176E0;-2.371086836E0
5.109559011E0;-1.091354942E1;-3.738159657E0;-2.619973898E0
5.119558761E0;-1.144352436E1;-4.699205399E0;-2.824139595E0
5.129558561E0;-1.148824120E1;-5.710319519E0;-2.890878677E0
5.139558394E0;-1.169464111E1;-5.888433456E0;-2.673810720E0
5.149558394E0;-1.210547066E1;-6.450499058E0;-2.673517227E0
5.159558394E0;-1.084494972E1;-7.896739006E0;-3.008768559E0
5.169558282E0;-5.503131390E0;-8.338315964E0;-4.109186172E0
5.179558282E0;-5.790598392E0;-8.021945953E0;-3.727634192E0
5.189558282E0;-1.320065022E0;-6.758928299E0;-4.319008350E0
5.199558198E0;4.470174789E0;-5.874330997E0;-5.228466511E0
5.209558121E0;1.687846756E1;-2.017965317E0;-7.639582157E-1
5.219556121E0;1.665874863E1;-1.718011856E0;-7.172644138E-1
5.229556121E0;2.270781708E1;1.179347038E-1;1.690201640E0
5.239556121E0;3.267330170E1;3.322798252E0;7.871603012E0
5.249556062E0;4.631680298E1;3.368035316E0;1.305075645E1
5.259110117E0;4.617101669E1;3.562368393E0;1.288278294E1
5.268266590E0;4.610437012E1;3.628311634E0;1.271351719E1
5.284293590E0;4.471543121E1;2.828648090E0;1.151881027E1
5.294292590E0;3.491487122E1;1.557181835E0;8.013116837E0
5.304296590E0;1.948862457E1;-1.575508595E0;4.167953968E0
5.314296590E0;1.331131172E1;-2.561875820E0;2.859797478E0
5.324296923E0;7.779858589E0;-3.413512230E0;1.799222112E0
5.334296923E0;2.746125698E0;-4.128493309E0;9.365057945E-1
5.344296923E0;4.091591835E-1;-4.562981129E0;-9.773498774E-2
5.354296923E0;-4.579591751E-2;-4.695328712E0;-5.609019995E-1
5.364296923E0;-5.609955788E-1;-4.873004913E0;-1.278835058E0
5.374297048E0;-1.496410370E0;-5.047961235E0;-2.116374969E0
5.384297048E0;-4.220656395E0;-5.016719818E0;-3.970776558E0
5.394297048E0;-3.969739676E0;-5.227151871E0;-3.931768894E0
5.404297138E0;-5.017884731E0;-5.269258499E0;-5.073353767E0
5.414297138E0;-6.707420826E0;-4.389296532E0;-5.284394741E0
5.424297138E0;-8.524161339E0;-3.336954117E0;-4.435935497E0
5.434295280E0;-8.117377281E0;-3.593173981E0;-4.325707436E0
5.444295346E0;-8.469898224E0;-3.113141537E0;-3.985843182E0
5.454295408E0;-9.006630898E0;-2.518824577E0;-4.209088802E0
5.464295408E0;-8.876228333E0;-1.563548088E0;-4.889871120E0
5.473849519E0;-8.779953003E0;-1.610865593E0;-4.768733978E0
5.483006045E0;-8.709880829E0;-1.641920090E0;-4.636764050E0
5.499033045E0;-8.549468994E0;-1.397711277E0;-4.835482597E0
5.509032045E0;-8.124389648E0;-1.112881184E0;-5.093842030E0
5.519032045E0;-7.621349812E0;-6.354789734E-1;-5.304152966E0
5.529032045E0;-7.482210159E0;-2.548532486E-1;-5.085688591E0
5.539032378E0;-7.321417809E0;1.382589340E-1;-4.757392883E0
5.549032628E0;-6.967232704E0;7.745037079E-1;-3.863709211E0
5.559032628E0;-6.573098183E0;1.225704193E0;-2.756345034E0
5.569032794E0;-6.380073547E0;1.428545952E0;-1.922144175E0
5.579032936E0;-6.121856213E0;1.792243004E0;-8.648024797E-1
5.589032936E0;-5.842740059E0;2.195987701E0;-1.886380911E-1
5.599032936E0;-5.535717964E0;2.301245689E0;2.345873564E-1
5.609032936E0;-5.582375526E0;2.319971085E0;9.591303766E-2
5.619033026E0;-4.392778397E0;2.704710007E0;1.436041713E0
5.629032109E0;-3.874196053E0;3.149282455E0;2.134276628E0
5.639032109E0;-3.577211380E0;4.033655167E0;2.251387835E0
5.649031537E0;-3.589814663E0;4.040992737E0;2.198842287E0
5.659031603E0;-3.164109707E0;4.300399780E0;2.196223497E0
5.669031603E0;-2.624696255E0;4.634181976E0;2.135117769E0
5.679031603E0;-2.204732180E0;4.875269890E0;2.257656336E0
5.688585714E0;-2.221030951E0;4.882912636E0;2.303773880E0
5.697742240E0;-2.235955000E0;4.889863014E0;2.385707378E0
5.713769240E0;-1.024488926E0;4.463695526E0;2.002635002E0
5.723768240E0;-4.232115746E-1;3.843767166E0;1.556792259E0
5.733768240E0;-7.294702530E-2;3.394467354E0;1.187920928E0
5.743768740E0;2.762598991E-1;2.651260376E0;-6.898993254E-2
5.753768740E0;2.459201813E-1;1.902770996E0;-8.391337991E-1
5.763768740E0;-3.764925003E-1;9.682769775E-1;-1.730523825E0
5.773768740E0;-1.879031658E0;1.599626541E-1;-2.450035095E0
5.783772406E0;-2.353405476E0;-1.028661728E-1;-2.496746063E0
5.793772548E0;-3.031055927E0;-4.040374756E-1;-2.500407219E0
5.803772548E0;-4.486653805E0;-1.111360073E0;-2.577602386E0
5.813772548E0;-6.798201561E0;-2.110196114E0;-1.915415645E0
5.823772648E0;-6.667508125E0;-2.145775795E0;-1.804580927E0
5.833772648E0;-7.808877945E0;-2.315670967E0;-1.206152678E0
5.843772648E0;-8.605730057E0;-2.617771149E0;-6.945301294E-1
5.853772648E0;-1.135743237E1;-2.664585114E0;-9.874365330E-1
5.863770862E0;-1.111839581E1;-2.660966873E0;-6.304280758E-1
5.873770928E0;-1.130828476E1;-2.747798920E0;-4.894337654E-1
5.883770928E0;-1.219417953E1;-3.448848724E0;-2.759885788E-1
5.893770928E0;-1.205565262E1;-4.205756664E0;-8.162975311E-2
5.903325094E0;-1.202837372E1;-4.142948627E0;1.202535629E-1
5.912481672E0;-1.203404045E1;-4.062292576E0;3.270270824E-1
5.928506672E0;-1.198376274E1;-4.356779575E0;3.198444843E-1
5.938506672E0;-1.164311981E1;-4.635627270E0;4.053280354E-1
5.948487672E0;-1.102358437E1;-5.334895134E0;4.126842022E-1
5.958488172E0;-1.100870514E1;-5.588002205E0;3.756992817E-1
5.968488505E0;-1.116972923E1;-5.704750538E0;4.071288109E-1
5.978488505E0;-1.133055496E1;-6.006889820E0;3.102359772E-1
5.988488705E0;-1.026284981E1;-6.893106461E0;-2.485847473E-2
5.998488871E0;-9.403615952E0;-7.085993290E0;-2.970690727E-1
6.008488871E0;-7.423909187E0;-7.811316967E0;-6.205711365E-1
6.018488871E0;-3.877007246E0;-8.255066872E0;-1.796186447E0
6.028488871E0;6.156168938E0;-6.437624931E0;-4.113533497E0
6.038488971E0;6.728765488E0;-5.975475311E0;-4.249305725E0
6.048489061E0;1.223047829E1;-4.831377029E0;-5.143048286E0
6.058489061E0;2.138382912E1;-3.042114258E0;-4.346854210E0
6.068489137E0;2.694400787E1;-1.647182941E0;-1.736415386E0
6.078487279E0;2.626502419E1;-1.548485279E0;-2.506137371E0
6.088487279E0;4.061031723E1;5.264729500E0;8.797878265E0
6.098487279E0;4.619292831E1;5.221631050E0;1.028561783E1
6.108487279E0;3.443033218E1;2.749193192E0;8.693752289E-1
6.118041390E0;3.447677994E1;2.631615639E0;7.470178604E-1
6.127197968E0;3.460246277E1;2.378095627E0;5.047206879E-1
6.143222968E0;2.781011200E1;1.025372028E0;-6.277368069E-1
6.153222968E0;1.575607014E1;-1.591075420E0;-1.630735397E-1
6.163223968E0;5.482957840E0;-3.523758650E0;2.037161589E0
6.173224468E0;2.319296837E0;-4.369188309E0;2.572871923E0
6.183224468E0;-1.335499287E0;-4.852134228E0;3.194528580E0
6.193224468E0;-3.798809528E0;-4.337586403E0;3.193785667E0
6.203224468E0;-6.990761280E0;-2.224797726E0;1.182206631E0
6.213224634E0;-7.266560078E0;-1.950132370E0;6.390472651E-1
6.223224634E0;-9.267358780E0;-9.984269142E-1;-1.140727282E0
6.233224634E0;-1.109112167E1;-6.512546539E-1;-3.523080349E0
6.243224745E0;-1.587283230E1;-1.491929531E0;-8.963927269E0
6.253224745E0;-1.666804886E1;-1.522156715E0;-9.417487144E0
6.263224745E0;-1.949803734E1;-1.522335529E0;-1.153855515E1
6.273224745E0;-2.644724655E1;-1.922455311E0;-1.630661201E1
6.283225052E0;-2.844906044E1;-2.404073238E0;-1.708912659E1
6.292937552E0;-2.808284569E1;-2.389326572E0;-1.679536247E1
6.302135885E0;-2.778409576E1;-2.397343159E0;-1.664149857E1
6.311510885E0;-2.911048317E1;-5.771072865E0;-1.417786312E1
6.320922649E0;-2.834791565E1;-8.170030594E0;-1.063013840E1
6.330367149E0;-2.727679062E1;-1.092782116E1;-1.996767759E0
6.339418464E0;-2.728801155E1;-1.096779060E1;-2.093195200E0
6.348117214E0;-2.745161247E1;-1.097610569E1;-2.191378593E0
6.364142214E0;-2.581128502E1;-1.128256416E1;2.653717995E-1
6.374142214E0;-2.491456604E1;-1.147721386E1;8.078196049E-1
6.384142214E0;-2.034444809E1;-1.239894104E1;2.338122845E0
6.394142714E0;-1.698319435E1;-1.279983330E1;2.887433529E0
6.404142714E0;-8.767935753E0;-1.292078781E1;2.751076698E0
6.414142964E0;4.514605045E0;-1.187442398E1;3.465039730E-1
6.424143164E0;1.498973274E1;-1.025877190E1;-1.422539711E0
6.434143164E0;1.937928391E1;-9.307600021E0;-1.463219643E0
6.444143164E0;2.415261650E1;-6.800208092E0;3.072977066E-2
6.454143164E0;2.664529419E1;-2.831398010E0;3.719113111E0
6.464143275E0;3.246177292E1;-1.758532524E-1;1.251666546E1
6.474140675E0;3.223986053E1;-1.011924744E-1;1.230638981E1
6.484140675E0;3.354779053E1;-2.654643059E-1;1.290727043E1
6.494140758E0;3.262213898E1;-6.638989449E-1;9.906194687E0
6.504140834E0;2.961423874E1;-8.794031143E-1;6.895980835E0
6.514140834E0;2.975000954E1;-1.011657238E0;6.859711647E0
6.524140834E0;1.546757221E1;-3.065566540E0;6.389887333E-1
6.534140834E0;9.657426834E0;-4.458193779E0;2.902326584E-1
6.544140892E0;-7.043118477E-1;-5.201411247E0;3.477486849E0
6.553695058E0;-5.344219208E-1;-5.424321175E0;3.132415295E0
6.562851636E0;-3.721933365E-1;-5.606609344E0;2.835603476E0
6.578876636E0;-1.157491207E0;-5.448592186E0;3.144455433E0
6.588876636E0;-2.873239517E0;-4.791180611E0;3.362901211E0
6.598876636E0;-3.534215450E0;-4.297719002E0;3.136216164E0
6.608877136E0;-4.236725807E0;-3.253801346E0;2.441415787E0
6.618877136E0;-4.751300812E0;-2.327414036E0;1.508852601E0
6.628877136E0;-5.838648796E0;-1.002288342E0;2.833598852E-1
6.638877336E0;-6.710715771E0;8.461952209E-2;-4.362105131E-1
6.648877336E0;-8.108413696E0;1.592888832E0;-1.121603966E0
6.658877336E0;-8.908223152E0;2.406998634E0;-1.354497433E0
6.668877336E0;-1.045907688E1;3.851566315E0;-1.096195936E0
6.678877447E0;-1.261813927E1;6.279205322E0;-3.582148552E-1
6.688874947E0;-1.252067947E1;6.213267326E0;-6.212339401E-1
6.698876401E0;-1.265703487E1;6.709664345E0;-6.402887702E-1
6.708876401E0;-1.246682358E1;7.096834183E0;-8.518739939E-1
6.718876477E0;-1.118831348E1;7.063138008E0;-1.543017983E0
6.728874905E0;-1.118544292E1;7.059022903E0;-1.615764141E0
6.738874905E0;-1.077836609E1;7.197754860E0;-1.589339018E0
6.748874905E0;-1.005088711E1;7.065737724E0;-1.796465397E0
6.758874963E0;-6.892540932E0;5.065568924E0;-3.644784451E0
6.768429129E0;-6.876714230E0;5.060099602E0;-3.618630171E0
6.777585707E0;-6.833880424E0;5.044398308E0;-3.584069014E0
6.793610707E0;-6.299973488E0;4.505702972E0;-4.168254375E0
6.803611707E0;-5.871124268E0;3.676180840E0;-4.923869610E0
6.813591707E0;-5.966915131E0;2.489158630E0;-5.658313274E0
6.823591207E0;-6.199524879E0;1.549630165E0;-6.017685890E0
6.833590873E0;-6.608654976E0;3.483753204E-1;-6.475449562E0
6.843590623E0;-7.096725464E0;-7.489166260E-1;-6.804694176E0
6.853590623E0;-7.717253685E0;-1.891200066E0;-6.616464138E0
6.863590623E0;-7.768995285E0;-2.184011936E0;-6.574499130E0
6.873590480E0;-7.607691765E0;-2.503981590E0;-6.130002975E0
6.883590480E0;-7.164415359E0;-2.707432747E0;-5.500425339E0
6.893590480E0;-5.459860802E0;-2.859678745E0;-3.322900772E0
6.903590380E0;-5.424883842E0;-2.800500393E0;-3.725288868E0
6.913590289E0;-4.197561741E0;-2.748543739E0;-2.654253244E0
6.923590205E0;-3.135517359E0;-2.680789948E0;-1.799147367E0
6.933590205E0;-5.094640255E-1;-2.788464546E0;1.741778374E0
6.943589062E0;-4.774723053E-1;-2.530793190E0;1.033213377E0
6.953588995E0;3.755285740E-1;-2.483192444E0;1.901617050E0
6.963588995E0;1.693250895E0;-2.456592083E0;3.352079868E0
6.973588995E0;4.751205444E0;-2.807605743E0;5.566183090E0
6.983254161E0;4.758868217E0;-2.616515160E0;5.230501175E0
6.999280161E0;5.434033394E0;-2.432161808E0;5.254443169E0
7.009280161E0;5.777109146E0;-1.999371052E0;4.727391720E0
7.019261161E0;5.861059666E0;-1.627734661E0;3.964129448E0
7.029261161E0;5.743710995E0;-1.508673191E0;3.538512230E0
7.039261161E0;5.498033524E0;-1.433265209E0;3.314128399E0
7.049261161E0;5.105263233E0;-1.351565361E0;3.147143841E0
7.059261361E0;4.290565491E0;-1.431929588E0;2.375693321E0
7.069260194E0;4.203068256E0;-1.403644085E0;2.101392269E0
7.079260194E0;3.740325451E0;-1.357824326E0;1.446229458E0
7.089260319E0;3.364987850E0;-1.199531078E0;5.677042007E-1
7.099260430E0;3.131231785E0;-1.054507732E0;-1.218409538E-1
7.109257730E0;3.271336794E0;-1.016906738E0;-2.014908791E-1
7.119257730E0;2.161056042E0;-4.997777939E-1;-1.525578499E0
7.129257813E0;1.897578955E0;-1.240215302E-1;-1.963226795E0
7.139257813E0;1.996677041E0;7.447113991E-1;-2.821884155E0
7.149255884E0;2.076705456E0;8.286128044E-1;-2.931569099E0
7.159255084E0;2.063416958E0;8.406476974E-1;-3.215035200E0
7.169255146E0;2.124387741E0;8.235712051E-1;-3.453902483E0
7.179255204E0;2.251942873E0;1.117220879E0;-3.332866430E0
7.188809370E0;2.277860165E0;1.180607796E0;-3.404496431E0
7.197965896E0;2.305630922E0;1.242256165E0;-3.473080873E0
7.213992896E0;2.504349709E0;1.768980980E0;-2.529765129E0
7.223992896E0;2.539240599E0;1.544993401E0;-2.315912247E0
7.233991896E0;2.434124470E0;1.492793083E0;-2.547280788E0
7.243977896E0;2.388239861E0;1.650223255E0;-2.786370277E0
7.253977562E0;2.211891413E0;1.973929405E0;-3.292082071E0
7.263977562E0;1.952405214E0;2.034102440E0;-3.777909517E0
7.273977562E0;1.768289208E0;1.992977142E0;-4.142601967E0
7.283977395E0;1.579777718E0;2.220560074E0;-4.444663525E0
7.293977395E0;1.389320135E0;2.561590672E0;-4.645617485E0
7.303977395E0;1.293189764E0;2.798844337E0;-4.913238525E0
7.313977283E0;1.348810792E-1;3.406953335E0;-5.898642063E0
7.323977183E0;7.986438274E-2;3.346818924E0;-5.829410076E0
7.333977092E0;-9.103448987E-1;3.243363380E0;-6.654478550E0
7.343977092E0;-1.856082439E0;2.614965439E0;-7.478747845E0
7.353977015E0;-4.229128838E0;1.081704140E0;-9.487683296E0
7.363975300E0;-4.525743008E0;8.305573463E-1;-9.123437881E0
7.373975233E0;-5.547494888E0;2.012133598E-1;-9.794424057E0
7.383975170E0;-6.434745789E0;-3.238449097E-1;-1.085558319E1
7.393975170E0;-3.021800518E0;-1.059367657E0;-1.372794533E1
7.403529281E0;-3.307528496E0;-1.070854664E0;-1.359539413E1
7.412685807E0;-3.607252598E0;-9.917817116E-1;-1.357534409E1
7.428710807E0;-2.695061684E0;-1.089944363E0;-1.366871834E1
7.438711807E0;4.986729622E-1;-1.880088806E0;-1.188372421E1
7.448690807E0;4.879739761E0;-3.714884520E0;-5.222028732E0
7.458690307E0;6.279868126E0;-4.142474174E0;-1.563689709E0
7.468689973E0;8.287185669E0;-4.812896252E0;6.185703754E0
7.478689973E0;1.053006363E1;-5.761714458E0;1.382380486E1
7.488689973E0;1.300092316E1;-8.683427811E0;2.073542786E1
7.498689806E0;1.283197784E1;-8.432291985E0;2.151616096E1
7.508689663E0;1.148383331E1;-7.022847176E0;2.222419548E1
7.518689663E0;8.602713585E0;-4.528275490E0;2.028305435E1
7.528689551E0;6.425879955E0;-3.173398495E0;1.748833275E1
7.538689451E0;3.047235250E0;-1.495707512E0;1.002749825E1
7.548686905E0;2.189563751E0;-8.416240215E-1;7.388902664E0
7.558686905E0;2.136635780E-1;1.628152370E0;2.090002537E0
7.568686905E0;-7.454195023E-1;2.408887863E0;-7.171678543E-2
7.578684905E0;-5.592303276E-1;2.139058113E0;2.851295471E-2
7.588684905E0;-2.362596512E0;2.026236057E0;-4.156884670E0
7.598684905E0;-2.754719019E0;2.036616802E0;-5.133719921E0
7.608684846E0;-5.096780777E0;2.991309643E0;-4.522636414E0
7.618238901E0;-5.011919022E0;2.963750362E0;-4.533875465E0
7.627395374E0;-4.916426659E0;2.948457718E0;-4.556515694E0
7.643421374E0;-5.634686947E0;3.298010826E0;-4.285971165E0
7.653422374E0;-6.212099075E0;3.468469620E0;-4.176948071E0
7.663422374E0;-6.594373703E0;3.405725956E0;-4.335027695E0
7.673411874E0;-6.595623016E0;3.243728161E0;-4.460958481E0
7.683411874E0;-6.564921379E0;3.209755421E0;-4.507526398E0
7.693411874E0;-6.254227161E0;3.151007652E0;-4.592942238E0
7.703411674E0;-5.240432739E0;2.885010719E0;-4.447872639E0
7.713411507E0;-4.705843925E0;2.716519356E0;-4.301296234E0
7.723411364E0;-3.964651585E0;2.509048462E0;-4.045180321E0
7.733411364E0;-3.000694275E0;2.092965603E0;-3.765953064E0
7.743411252E0;-2.587563992E0;1.804291725E0;-3.426121712E0
7.753413452E0;-2.656837940E0;1.690789223E0;-2.296555996E0
7.763413361E0;-2.710540533E0;1.883418083E0;-1.810538769E0
7.773413277E0;-2.458738089E0;1.738128185E0;-1.201063156E0
7.783413277E0;-1.183386922E0;5.826940536E-1;6.152753830E-1
7.793411419E0;-1.057239652E0;9.752955437E-1;3.647327423E-1
7.803411352E0;-6.786222458E-1;9.567108154E-1;1.004256248E0
7.813411352E0;-7.224954367E-1;9.511377811E-1;1.957493782E0
7.823411293E0;-1.588539362E0;1.803860664E0;4.197657585E0
7.832965459E0;-1.574425697E0;1.972398520E0;4.124674797E0
7.842121932E0;-1.597354412E0;2.114864111E0;4.074807167E0
7.858147932E0;-1.587777615E0;2.138806105E0;4.062835693E0
7.868148932E0;-1.519001484E0;2.104641914E0;2.905390739E0
7.878148932E0;-1.360061407E0;1.650133371E0;1.274141312E0
7.888148432E0;-1.354114056E0;1.386064768E0;6.193923950E-1
7.898148432E0;-1.499484539E0;1.917117596E0;8.642101288E-2
7.908148432E0;-2.028003693E0;3.844141245E0;-2.381658554E-1
7.918148232E0;-2.230923653E0;6.053609848E0;1.243600845E-1
7.928148065E0;-2.056158066E0;6.162191391E0;2.518920898E-1
7.938147922E0;-1.614725590E0;5.852303505E0;1.968288422E-1
7.948147922E0;-1.558747530E0;5.637238503E0;4.587173462E-3
7.958147922E0;-1.791375637E0;2.131099939E0;-3.231058121E-1
7.968147822E0;-1.753462553E0;2.181962729E0;-3.447761536E-1
7.978147822E0;-1.849561214E0;8.160963058E-1;-6.108360291E-1
7.988147822E0;-2.189932108E0;6.873102188E-1;-6.121902466E-1
7.998147745E0;-3.537700176E0;3.693656683E0;-4.220600128E-1
8.008146959E0;-3.432298183E0;3.664793253E0;-4.375686646E-1
8.018146892E0;-3.692746639E0;4.232352257E0;-3.930702209E-1
8.028146142E0;-3.990968227E0;4.447635651E0;-6.476726532E-1
8.038146142E0;-4.729357719E0;4.125995636E0;-2.203953266E0
8.047700197E0;-4.727034569E0;4.079767704E0;-2.192858219E0
8.056856670E0;-4.701139927E0;4.036775589E0;-2.187086582E0
8.072883670E0;-4.861551285E0;3.526810408E0;-2.663532734E0
8.082883670E0;-5.387705803E0;2.937043667E0;-2.626642704E0
8.092882670E0;-6.882473946E0;2.776170492E0;-3.251087189E0
8.102882170E0;-7.029604435E0;1.978245735E0;-4.197912216E0
8.112881836E0;-7.563288212E0;2.127268553E0;-4.995093822E0
8.122881836E0;-7.571141720E0;3.408930540E0;-4.331267834E0
8.132881636E0;-5.959439278E0;2.949906826E0;-1.684411049E0
8.142881469E0;-5.396056175E0;2.650300980E0;-1.000872612E0
8.152881469E0;-4.336054325E0;2.220424414E0;9.190998077E-1
8.162881344E0;-3.408388138E0;2.672482014E0;2.113599777E0
8.172881232E0;-2.895457268E0;2.634465218E0;1.781173706E0
8.182881132E0;-3.024433613E0;2.449114323E0;1.822247505E0
8.192881041E0;-2.693229198E0;9.859015942E-1;-1.826762676E0
8.202881041E0;-2.549954414E0;-2.647542953E-2;-4.571944237E0
8.212880964E0;-1.497609258E0;-1.528519511E0;-6.897795200E0
8.222736392E0;-2.086836338E0;-1.861438870E0;-6.684232235E0
8.232068592E0;-2.357228279E0;-1.977299571E0;-6.580261707E0
8.241443592E0;4.061925888E0;-3.988429070E0;-7.332040787E0
8.250855297E0;6.313977242E0;-4.035229683E0;-4.677566528E0
8.260299685E0;1.251533985E1;-1.352011776E1;1.230620289E1
8.269350895E0;1.226911640E1;-1.331621552E1;1.232003975E1
8.278049545E0;1.203255272E1;-1.305260658E1;1.232454014E1
8.294076545E0;1.253533363E1;-1.340694809E1;1.591135311E1
8.304076545E0;1.326665783E1;-1.339114857E1;2.190799332E1
8.314075545E0;1.395087147E1;-1.351986408E1;2.494102859E1
8.324075045E0;1.375614357E1;-1.226294804E1;2.544603348E1
8.334075045E0;1.241173553E1;-1.036734581E1;2.210828400E1
8.344074795E0;1.101140594E1;-9.479121208E0;1.650185013E1
8.354074595E0;9.050862312E0;-7.720180988E0;7.579990387E0
8.364074428E0;8.443598747E0;-7.146253586E0;4.567406654E0
8.374074428E0;7.135073662E0;-5.785595417E0;6.369419098E-1
8.384074428E0;5.096349239E0;-3.994509459E0;-2.064888000E0
8.394074316E0;1.160778999E0;-2.154659748E0;-4.366505623E0
8.404074316E0;9.994926453E-1;-2.538814545E0;-4.055647850E0
8.414074316E0;-8.353507519E-1;-2.095176935E0;-4.368641853E0
8.424074232E0;-2.641007662E0;-1.040632725E0;-4.814107895E0
8.434074155E0;-4.141010761E0;-2.515792847E-3;-6.455984116E0
8.444072155E0;-4.360066414E0;-7.289261818E-1;-5.521887302E0
8.454072155E0;-5.308082104E0;-6.544280052E-1;-5.318758011E0
8.464072155E0;-7.088860512E0;-3.611330986E-1;-4.847335815E0
8.474072096E0;-9.149225235E0;-2.471661568E-1;-4.519594193E0
8.483626151E0;-9.038423538E0;-6.261768341E-1;-3.767974377E0
8.492782624E0;-8.828623772E0;-9.934005737E-1;-2.920584679E0
8.508808624E0;-1.640178299E1;-1.498577118E0;-6.657933235E0
8.518809624E0;-1.963006783E1;-3.775065899E0;-8.071198463E0
8.528788624E0;-2.525314713E1;-6.683985710E0;-1.016456699E1
8.538788124E0;-2.806152344E1;-7.623579979E0;-1.037476635E1
8.548788124E0;-3.086231995E1;-8.595120430E0;-1.027949333E1
8.558787874E0;-3.289788818E1;-9.187463760E0;-9.655657768E0
8.568787674E0;-3.140179443E1;-8.794671059E0;-7.846477509E0
8.578787674E0;-2.978701401E1;-8.956486702E0;-6.891065598E0
8.588787674E0;-2.675242615E1;-9.650329590E0;-6.452779770E0
8.598787549E0;-2.287955856E1;-1.012081623E1;-6.091224194E0
8.608787437E0;-5.967605591E0;-1.404297829E1;-7.465645313E0
8.618785737E0;-7.578446388E0;-1.315161896E1;-7.427468777E0
8.628785737E0;-1.431823254E0;-1.374655628E1;-7.699920177E0
8.638785653E0;8.713994980E0;-1.399995899E1;-6.792623043E0
8.648785576E0;2.317744637E1;-1.129361057E1;4.082952023E0
8.658641004E0;2.228608322E1;-1.070390320E1;2.675193071E0
8.667973204E0;2.199326706E1;-1.043716240E1;1.969711423E0
8.677348141E0;2.303474426E1;-9.206243515E0;6.147892952E0
8.686759846E0;2.435017014E1;-5.674508572E0;1.618791771E1
8.696204234E0;3.157532120E1;-5.671977997E-3;1.507510567E1
8.705255444E0;3.149959564E1;1.801171303E-1;1.527203465E1
8.713954094E0;3.145639420E1;3.231029510E-1;1.550482941E1
8.729981094E0;3.220578003E1;7.109637260E-1;1.371875477E1
8.739980094E0;3.074910355E1;2.082839489E0;7.409033298E0
8.749980094E0;2.676909637E1;2.534200191E0;4.048764229E0
8.759980594E0;1.807691956E1;2.780329227E0;1.600567579E0
8.769980594E0;1.281148529E1;3.174935818E0;1.488960862E0
8.779980594E0;6.897472382E0;4.035676956E0;2.796089649E0
8.789980594E0;2.968653679E0;5.017465115E0;3.712783337E0
8.799980760E0;1.970379829E0;5.062972069E0;3.845852852E0
8.809980902E0;4.489412308E-1;5.486535072E0;3.912481070E0
8.819980902E0;-2.255144119E-1;6.082926750E0;3.411440372E0
8.829980902E0;-1.755052567E0;7.878995419E0;1.151255488E0
8.839980902E0;-1.636832237E0;7.738124371E0;1.000319123E0
8.849980992E0;-2.270860672E0;8.284088135E0;-4.237900972E-1
8.859981075E0;-3.233892918E0;8.478580475E0;-1.593403220E0
8.869981075E0;-5.914587021E0;9.142874718E0;-2.630941868E0
8.879979217E0;-5.755535126E0;8.932634354E0;-2.602330685E0
8.889979283E0;-5.955810547E0;8.835543633E0;-2.570370674E0
8.899979283E0;-6.589112759E0;8.816143036E0;-2.625078678E0
8.909979283E0;-8.002959251E0;6.674871922E0;-1.992967844E0
8.919533394E0;-7.805353165E0;6.450704098E0;-1.867400169E0
8.928689920E0;-7.590595722E0;6.220828056E0;-1.713375807E0
8.944716920E0;-7.976062298E0;5.488202095E0;-1.560146809E0
8.954715920E0;-8.066896439E0;4.167888165E0;-1.254910111E0
8.964715920E0;-8.056884766E0;2.671157837E0;-1.098667860E0
8.974716420E0;-8.373044968E0;5.825562477E-1;-1.444922328E0
8.984716420E0;-8.660929680E0;-7.357292175E-1;-1.723250628E0
8.994716420E0;-9.901884079E0;-2.197678566E0;-2.453006983E0
9.004716420E0;-1.220293236E1;-4.163054943E0;-2.474454880E0
9.014716420E0;-1.258005333E1;-4.785428047E0;-2.124472857E0
9.024716562E0;-1.453900051E1;-5.944561958E0;-2.024959326E0
9.034716562E0;-1.687844658E1;-6.748984337E0;-2.266621828E0
9.044716562E0;-2.080754089E1;-7.264879704E0;-2.716624498E0
9.054719862E0;-2.050536919E1;-7.243266582E0;-2.273437023E0
9.064719862E0;-2.147282600E1;-7.157837391E0;-1.996102810E0
9.074719862E0;-2.228881264E1;-7.100816727E0;-1.469149590E0
9.084719862E0;-2.342969322E1;-7.625936031E0;-6.461577415E-1
9.094718004E0;-2.351653099E1;-7.450300694E0;-3.496031761E-1
9.104718070E0;-2.369010925E1;-7.457577705E0;1.111688614E-1
9.114718070E0;-2.286401939E1;-8.160235405E0;7.524499893E-1
9.124718070E0;-1.231456566E1;-1.484960556E1;3.000156879E0
9.134272236E0;-1.295561981E1;-1.442002678E1;3.073609352E0
9.143428814E0;-1.365128517E1;-1.388140488E1;3.112770081E0
9.159453814E0;-1.129539108E1;-1.500189114E1;3.179807663E0
9.169453814E0;-3.337793112E0;-1.677941513E1;3.076750755E0
9.179453814E0;1.052224064E1;-1.846637917E1;1.975120544E0
9.189454314E0;1.815255165E1;-1.998008537E1;8.306035995E-1
9.199454647E0;2.458588219E1;-2.019533730E1;-4.772071838E-1
9.209454647E0;2.534022522E1;-1.818599129E1;2.709589005E-1
9.219454847E0;2.554091263E1;-1.650308800E1;1.769248962E0
9.229455013E0;2.820859909E1;-1.339834404E1;5.135708332E0
9.239453584E0;3.273833084E1;-1.152917480E1;8.060483932E0
9.249453584E0;4.319319153E1;-9.569761276E0;1.343917561E1
9.259453584E0;4.829069519E1;-7.575832367E0;9.459939957E0
9.269453684E0;4.835913086E1;-7.711742401E0;9.492424011E0
9.279453774E0;4.287227631E1;-8.661472321E0;4.972901344E0
9.289453774E0;2.943691635E1;-1.089289665E1;1.077811718E0
9.299453850E0;9.493773460E0;-1.058649254E1;5.866384506E-1
9.309453921E0;9.758653641E0;-1.105159187E1;2.561866045E-1
9.319453921E0;4.240898132E0;-1.041178894E1;2.000970244E-1
9.329452671E0;3.300967216E-1;-8.667263031E0;-7.057698369E-1
9.339452671E0;-9.978804588E-1;-7.536386490E0;-8.702297211E-1
9.349006782E0;-7.395582199E-1;-7.766215801E0;-6.642775536E-1
9.358163360E0;-4.382500648E-1;-7.979271412E0;-2.987321615E-1
9.374191360E0;-4.168715477E0;-4.888357162E0;-3.028121948E0
9.384188360E0;-6.268889904E0;-3.704416990E0;-4.846246719E0
9.394189360E0;-1.024244213E1;-2.293612003E0;-8.945333481E0
9.404196360E0;-1.135482025E1;-2.238471031E0;-9.981077194E0
9.414187360E0;-1.391969585E1;-2.048409939E0;-1.188024139E1
9.424187360E0;-1.748628426E1;-1.392657757E0;-1.375857353E1
9.434187360E0;-2.349223900E1;-1.294802666E0;-1.448191452E1
9.444187526E0;-2.437509346E1;-1.657583237E0;-1.412267494E1
9.454187526E0;-2.659614182E1;-2.820289612E0;-1.294310379E1
9.464187526E0;-2.860717773E1;-4.171539307E0;-1.141089630E1
9.474187637E0;-3.176588440E1;-6.551836967E0;-9.343591690E0
9.484187637E0;-3.158532333E1;-6.604176521E0;-9.324172020E0
9.494187637E0;-3.324863815E1;-7.095526695E0;-8.848091125E0
9.504187637E0;-3.429148483E1;-7.121299744E0;-8.425216675E0
9.514187713E0;-3.107316017E1;-9.327946663E0;-5.390589237E0
9.524185855E0;-3.119593811E1;-9.256575584E0;-5.331122398E0
9.534185855E0;-2.876853561E1;-1.015810871E1;-4.267474651E0
9.544185855E0;-2.419342613E1;-1.144151211E1;-2.558257580E0
9.554185913E0;-5.336445332E0;-1.434119701E1;-1.037217617E0
9.563740079E0;-5.808558941E0;-1.404689407E1;-9.606366158E-1
9.572896657E0;-6.290010452E0;-1.370660400E1;-8.903779984E-1
9.588921657E0;1.623125076E0;-1.399151421E1;-1.414708138E0
9.598921657E0;8.699926376E0;-1.317321014E1;-2.370074749E0
9.608902657E0;1.567719078E1;-1.201016617E1;-3.138068199E0
9.618903157E0;2.584756851E1;-9.807545662E0;-2.143628120E0
9.628903157E0;3.352839661E1;-6.562743187E0;6.050655842E-1
9.638903157E0;4.100947952E1;-2.828612566E0;5.570338249E0
9.648903157E0;5.138764191E1;-1.417435646E0;1.187198067E1
9.658903323E0;5.226189804E1;-1.589959621E0;1.187108803E1
9.668903465E0;5.017455292E1;-1.681317806E0;9.920764923E0
9.678903465E0;3.806865311E1;-1.674954414E0;5.109004974E0
9.688903576E0;1.249735451E1;-3.139620066E0;1.256575346E0
9.698903676E0;1.078707314E1;-3.562920332E0;9.189507961E-1
9.708903676E0;2.472578049E0;-4.040705681E0;1.890810847E0
9.718903676E0;-3.290786028E0;-4.243665695E0;4.255378723E0
9.728903676E0;-9.034348488E0;-3.054794312E0;6.891799927E0
9.738903747E0;-8.806378365E0;-3.268963337E0;6.664858341E0
9.748903747E0;-9.818332672E0;-3.055013180E0;6.438564777E0
9.758903747E0;-9.772024155E0;-2.706605434E0;5.303366661E0
9.768903805E0;-9.215192795E0;-5.941271782E-1;1.879610300E0
9.778458082E0;-9.072257042E0;-6.709666252E-1;1.926843166E0
9.787614660E0;-8.933525085E0;-7.438483238E-1;1.964215040E0
9.803639660E0;-9.022109985E0;-3.176803589E-1;1.688881874E0
9.813639660E0;-9.522452354E0;1.152933121E0;9.335188866E-1
9.823639660E0;-1.054176140E1;2.175642967E0;7.365344167E-1
9.833640160E0;-1.117280197E1;2.663239479E0;8.482254148E-1
9.843640160E0;-1.231562042E1;3.753066063E0;1.415536165E0
9.853640160E0;-1.331610489E1;4.565752983E0;2.116644859E0
9.863640360E0;-1.403447247E1;5.184577942E0;2.417237759E0
9.873640360E0;-1.394983101E1;5.185347557E0;2.241711617E0
9.883640360E0;-1.342693996E1;5.072036743E0;1.858313203E0
9.893640360E0;-1.261872005E1;4.892195702E0;1.177313566E0
9.903640471E0;-1.296635151E1;4.951270103E0;-1.155143261E0
9.913640571E0;-1.306193256E1;5.027851105E0;-1.373635292E0
9.923640571E0;-1.400449562E1;5.612106323E0;-2.649280548E0
9.933640571E0;-1.456550598E1;5.373936653E0;-3.605860710E0
9.943640647E0;-1.359819603E1;2.893231392E0;-3.789704323E0
9.953640647E0;-1.353027344E1;2.881526947E0;-3.704550266E0
9.963640647E0;-1.258111191E1;1.417682648E0;-3.197330952E0
9.973640647E0;-1.191363430E1;3.079299927E-1;-2.346550465E0
9.983640705E0;-1.240379524E1;-2.162103176E0;-4.728443623E-1
9.993194871E0;-1.234774113E1;-2.158350468E0;-3.518161774E-1
1.000235145E1;-1.229361820E1;-2.142581463E0;-1.850819588E-1
1.001837645E1;-1.250191402E1;-2.393972874E0;-7.494854927E-2
1.002837745E1;-1.336704445E1;-3.294290066E0;1.273369789E-1
1.003837745E1;-1.422885132E1;-3.694556236E0;1.580460072E-1
1.004837695E1;-1.592629528E1;-3.961024761E0;-3.194475174E-1
1.005837662E1;-1.730420685E1;-4.467715740E0;-1.340609789E0
1.006837636E1;-1.858027267E1;-4.934393883E0;-2.858883381E0
1.007837636E1;-1.984628868E1;-5.393229485E0;-4.968004227E0
1.008837636E1;-2.007019424E1;-5.459404945E0;-5.238644600E0
1.009837622E1;-2.007643509E1;-5.837435722E0;-5.597823620E0
1.010837610E1;-1.975774384E1;-6.255777359E0;-5.480885983E0
1.011837598E1;-1.770807076E1;-7.635159492E0;-3.097603321E0
1.012837599E1;-1.794626236E1;-7.457458019E0;-2.976685047E0
1.013837589E1;-1.589125252E1;-8.391998291E0;-8.514966965E-1
1.014837581E1;-1.272690964E1;-9.793724060E0;1.198796272E0
1.015837581E1;-9.466023445E0;-1.109492302E1;2.354397058E0
1.016823102E1;-1.032332993E1;-1.045406818E1;2.392837763E0
1.017756302E1;-1.072444057E1;-1.008859825E1;2.410242319E0
1.018693796E1;6.385122776E0;-1.692913246E1;2.728671312E0
1.019634967E1;1.267515469E1;-1.882062721E1;2.393026114E0
1.020579405E1;2.859865189E1;-1.587902927E1;2.980167389E0
1.021484532E1;2.818110275E1;-1.556131840E1;2.766620636E0
1.022354402E1;2.774824142E1;-1.524216270E1;2.466313362E0
1.023956902E1;2.901477432E1;-1.370029640E1;2.763194323E0
1.024956902E1;3.401867294E1;-7.574855804E0;3.965986252E0
1.025955002E1;3.924240875E1;-4.756082058E0;4.501720428E0
1.026955002E1;4.889506149E1;-3.641401291E0;3.877333641E0
1.027955002E1;5.314236832E1;-3.461960077E0;2.559820652E0
1.028954702E1;4.984557724E1;-4.737516880E0;-4.518256187E-1
1.029954722E1;3.617669678E1;-7.666404724E0;-1.066384315E-1
1.030954738E1;2.858579636E1;-9.228767395E0;7.682499886E-1
1.031954738E1;1.749690247E1;-1.003767204E1;2.923641920E0
1.032954751E1;9.728298187E0;-9.542781830E0;4.804407120E0
1.033954762E1;4.238046646E0;-8.949110985E0;3.340810299E0
1.034954762E1;3.896988392E0;-9.056917191E0;2.541861296E0
1.035954762E1;3.270434380E0;-8.775455475E0;1.247195005E0
1.036954762E1;1.775995255E0;-7.416611195E0;-1.666689396E0
1.037954770E1;9.905629158E-1;-6.865989685E0;-2.749980927E0
1.038954777E1;1.174383163E0;-7.068610191E0;-2.801233053E0
1.039954777E1;-5.127519608E0;-2.924430370E0;-6.070628166E0
1.040954783E1;-8.667946815E0;-7.506442070E-1;-7.145427704E0
1.041954789E1;-1.587581444E1;4.183571815E0;-7.217967033E0
1.042910205E1;-1.568458557E1;4.028409481E0;-7.226181030E0
1.043825858E1;-1.553035164E1;3.918787003E0;-7.195811272E0
1.045428458E1;-1.627973557E1;4.842948914E0;-6.865411758E0
1.046428458E1;-1.611323929E1;5.375444412E0;-6.667164803E0
1.047425858E1;-1.490170479E1;5.239397526E0;-6.883436680E0
1.048426908E1;-1.412495995E1;4.823595524E0;-7.407251358E0
1.049426908E1;-1.371455574E1;4.217524529E0;-8.443524361E0
1.050426933E1;-1.385461044E1;3.247915745E0;-9.541734695E0
1.051426953E1;-1.560462666E1;8.122119904E-1;-1.134113693E1
1.052426953E1;-1.620812035E1;2.137203217E-1;-1.166695023E1
1.053426953E1;-1.826209259E1;-1.138209343E0;-1.271807098E1
1.054426953E1;-2.044620705E1;-2.544703960E0;-1.331285191E1
1.055426964E1;-2.353215027E1;-5.830773354E0;-1.186743069E1
1.056426724E1;-2.321678352E1;-5.854789734E0;-1.159081268E1
1.057426724E1;-2.337728691E1;-6.724564552E0;-1.080387115E1
1.058426732E1;-2.419674873E1;-7.675991535E0;-8.459766388E0
1.059426732E1;-2.451547813E1;-8.193115234E0;-6.638836861E0
1.060426546E1;-2.457550049E1;-8.138862610E0;-6.592468262E0
1.061426546E1;-2.269440269E1;-9.843922615E0;-2.076114178E0
1.062426546E1;-1.982489395E1;-1.098655605E1;-6.462168694E-1
1.063426552E1;-1.874753714E0;-1.329936504E1;8.718190193E-1
1.064381969E1;-2.261029482E0;-1.294135666E1;1.024966240E0
1.065297627E1;-2.663945436E0;-1.251435757E1;1.190877914E0
1.066900127E1;2.641904831E0;-1.261970234E1;9.562463760E-1
1.067900227E1;1.405964470E1;-1.226056290E1;6.773309708E-1
1.068900127E1;2.334521866E1;-1.133084583E1;1.239966393E0
1.069900077E1;3.571257019E1;-7.592130661E0;4.178300381E0
1.070900043E1;4.308585739E1;-2.377889633E0;7.910260677E0
1.071900043E1;4.704033661E1;1.549049854E0;9.206832886E0
1.072900043E1;4.689125824E1;2.770874500E0;7.060945511E0
1.073900027E1;3.983646774E1;2.832418442E0;6.706666946E-1
1.074900012E1;2.869204330E1;1.823130131E0;-3.606952190E0
1.075900000E1;2.007162285E1;3.524951935E-1;-3.962672234E0
1.076900000E1;1.227916336E1;-1.349337578E0;-2.570139408E0
1.077899900E1;4.322829247E-1;-2.809663773E0;3.034641266E0
1.078899891E1;-3.369727850E0;-2.954669237E0;5.099178314E0
1.079899891E1;-6.516068459E0;-2.549298763E0;6.916985035E0
1.080899891E1;-7.744473457E0;-1.200706005E0;5.152157784E0
1.081899883E1;-7.662659645E0;-1.318498135E0;5.069431305E0
1.082899877E1;-7.548011780E0;-7.325773239E-1;3.623965502E0
1.083899870E1;-7.415802956E0;2.108407021E-1;1.741808653E0
1.084899870E1;-7.533807755E0;2.633442402E0;-1.500220060E0
1.085855282E1;-7.464733601E0;2.602124691E0;-1.435956478E0
1.086770934E1;-7.404250145E0;2.562013626E0;-1.408485651E0
1.088373434E1;-7.574238300E0;2.858894348E0;-1.626657248E0
1.089373534E1;-8.301486969E0;4.031886578E0;-2.163604498E0
1.090373534E1;-9.506530762E0;5.297816753E0;-2.048096180E0
1.091373484E1;-9.964883804E0;5.562799931E0;-1.806705952E0
1.092373451E1;-1.039017963E1;6.409519196E0;-7.550520897E-1
1.093373426E1;-1.032420349E1;6.609100342E0;-4.413251877E-1
1.094373426E1;-1.021160793E1;6.805516720E0;-2.004098892E-1
1.095373409E1;-1.011384392E1;7.082339287E0;-3.952987194E-1
1.096373395E1;-1.001057625E1;7.544581413E0;-6.522872448E-1
1.097373395E1;-9.782921791E0;7.800021172E0;-7.545120716E-1
1.098373095E1;-9.388253212E0;7.728176117E0;-7.380719185E-1
1.099373085E1;-9.346814156E0;7.697391510E0;-7.385749817E-1
1.100373076E1;-8.234528542E0;7.175302505E0;-7.023036480E-1
1.101373067E1;-7.593973160E0;6.768933296E0;-9.375767708E-1
1.102373067E1;-6.858002663E0;6.313160896E0;-1.115873814E0
1.103372867E1;-6.756558895E0;6.295630455E0;-9.784023762E-1
1.104372860E1;-5.007011890E0;3.779135227E0;-1.920310020E0
1.105372861E1;-5.196192741E0;2.443931103E0;-2.266657352E0
1.106372855E1;-8.037432671E0;-1.179509163E-1;-1.770838976E0
1.107328260E1;-7.903787136E0;-1.754813194E-1;-1.703144789E0
1.108243907E1;-7.748325825E0;-2.375974655E-1;-1.622859716E0
1.109846507E1;-8.442644119E0;-5.608148575E-1;-1.529485941E0
1.110846607E1;-9.624443054E0;-1.109594822E0;-1.411323071E0
1.111845407E1;-1.104953957E1;-1.897965431E0;-1.555302858E0
1.112845357E1;-1.189048767E1;-2.590343475E0;-1.723990202E0
1.113845357E1;-1.285901546E1;-3.371858597E0;-1.985459089E0
1.114845357E1;-1.495363998E1;-4.074643135E0;-2.388244390E0
1.115845337E1;-1.635159683E1;-4.302149773E0;-2.646377087E0
1.116845321E1;-1.911034203E1;-4.274206161E0;-3.305831432E0
1.117845306E1;-2.107906532E1;-3.961439610E0;-3.745144844E0
1.118845306E1;-2.261477852E1;-3.810378075E0;-4.033767223E0
1.119845306E1;-2.271765900E1;-3.857952118E0;-3.848167896E0
1.120845296E1;-2.275180626E1;-3.762024403E0;-3.717270374E0
1.121845296E1;-2.191969490E1;-4.537808418E0;-2.609049797E0
1.122845080E1;-2.051483917E1;-5.143000603E0;-1.225888252E0
1.123845072E1;-1.899574471E1;-5.762443066E0;7.456111908E-2
1.124845065E1;-1.929079247E1;-5.567312717E0;1.135683060E-1
1.125845058E1;-1.169023895E1;-8.306985855E0;3.004296541E0
1.126845058E1;-6.267670631E0;-9.900807381E0;4.094632149E0
1.127845058E1;1.794880676E1;-1.427919579E1;4.031881332E0
1.128800464E1;1.759055710E1;-1.396803188E1;4.025184631E0
1.129716111E1;1.716180229E1;-1.365408516E1;3.895375967E0
1.131318711E1;2.037033272E1;-1.380731487E1;3.888193369E0
1.132318711E1;3.140048218E1;-1.214604855E1;6.017983437E0
1.133318811E1;4.466643906E1;-8.497336388E0;1.201846504E1
1.134318811E1;5.009638596E1;-7.492823601E0;1.464859009E1
1.135318811E1;5.658913040E1;-7.106145382E0;1.663654709E1
1.136318836E1;5.684442139E1;-7.426673412E0;1.320573425E1
1.137318836E1;5.158082199E1;-7.104567051E0;8.386274338E0
1.138318836E1;3.575714111E1;-7.065053940E0;1.235663414E0
1.139318836E1;1.988005638E1;-7.588499069E0;-2.450327158E0
1.140318848E1;1.133182716E1;-7.787333965E0;-2.556040525E0
1.141318860E1;1.328409672E0;-6.654753685E0;1.767705798E0
1.142318860E1;1.475053310E0;-6.937293530E0;1.471802115E0
1.143318860E1;6.703600883E-1;-6.457375050E0;1.659908295E0
1.144318868E1;7.869148254E-2;-5.595086098E0;8.014947176E-1
1.145318868E1;-2.695396423E0;-2.350275517E0;-4.001857758E0
1.146318675E1;-2.258201122E0;-2.585186958E0;-3.565227985E0
1.147318675E1;-4.156671524E0;-1.207276344E0;-5.597160816E0
1.148318681E1;-6.933607101E0;4.352655411E-1;-7.821121216E0
1.149318687E1;-9.134925842E0;1.597770214E0;-9.322501183E0
1.150274104E1;-8.901395798E0;1.525239944E0;-9.129514694E0
1.151189756E1;-8.680028915E0;1.449531078E0;-8.984050751E0
1.152792456E1;-1.530508423E1;3.484602451E0;-1.240087605E1
1.153792456E1;-1.879886436E1;3.218735218E0;-1.340476131E1
1.154792356E1;-2.284138870E1;1.917034626E0;-1.417667007E1
1.155792306E1;-2.535826302E1;6.410870552E-1;-1.416054630E1
1.156792273E1;-2.786513710E1;-9.133949280E-1;-1.357697487E1
1.157792273E1;-2.928296280E1;-2.113454819E0;-1.272831535E1
1.158791773E1;-2.982590103E1;-2.934833050E0;-1.195705509E1
1.159791756E1;-3.031841087E1;-4.046746731E0;-1.151136303E1
1.160791756E1;-3.010781479E1;-5.023679733E0;-1.137819290E1
1.161791756E1;-2.874665260E1;-6.147140980E0;-1.064783859E1
1.162791745E1;-2.101042175E1;-9.404046059E0;-6.656612873E0
1.163791465E1;-2.123438835E1;-9.156323433E0;-6.479569912E0
1.164791456E1;-1.704051590E1;-1.046888924E1;-4.457181931E0
1.165791456E1;-1.154373360E1;-1.179648209E1;-2.637442112E0
1.166791448E1;2.125347614E0;-1.368357658E1;-2.145455360E0
1.167791441E1;1.817352772E0;-1.327789974E1;-2.007723331E0
1.168791441E1;8.800901413E0;-1.351751232E1;-2.759591103E0
1.169791441E1;1.341581059E1;-1.305882454E1;-2.994382381E0
1.170791435E1;1.172612667E1;-1.151731491E1;-7.234334946E-2
1.171746852E1;1.130257702E1;-1.140989494E1;-5.359277725E-1
1.172662499E1;1.087689209E1;-1.134273911E1;-1.140610695E0
1.174265099E1;9.813867569E0;-1.162764931E1;8.037805557E-1
1.175265199E1;8.108114243E0;-1.268181515E1;6.741897583E0
1.176265099E1;8.689435959E0;-1.255016136E1;1.172540188E1
1.177265049E1;1.131975555E1;-1.191967010E1;1.398078060E1
1.178265049E1;1.657910538E1;-1.102159786E1;1.409718704E1
1.179265024E1;2.150273895E1;-9.302602768E0;1.154198265E1
1.180265004E1;2.395727539E1;-5.326408386E0;5.254877567E0
1.181264987E1;2.315216064E1;-3.744307041E0;2.843898296E0
1.182264973E1;1.993453217E1;-2.175460339E0;-2.181792259E-1
1.183264973E1;1.469506741E1;-1.812136173E0;-1.110518932E0
1.184264962E1;3.721190453E0;-1.502240658E0;3.043757677E0
1.185264952E1;3.665860176E0;-1.852084637E0;2.578900814E0
1.186264952E1;-9.954261780E-2;-1.634708405E0;4.844772339E0
1.187264943E1;-3.286541462E0;-3.420853615E-1;7.180707455E0
1.188264936E1;-4.414123058E0;6.079249382E-1;7.847697258E0
1.189264928E1;-4.372730732E0;4.662179947E-1;7.717853546E0
1.190264928E1;-3.260644913E0;2.663122654E0;6.890389919E0
1.191264928E1;-1.889316559E0;3.728002071E0;5.458803177E0
1.192264922E1;1.198710442E0;6.445801258E0;2.054332733E0
1.193220328E1;1.212188721E0;6.413187981E0;2.034018278E0
1.194135975E1;1.228140831E0;6.364061832E0;1.984755158E0
1.195738675E1;1.381369591E0;6.632212162E0;1.817161083E0
1.196738575E1;1.509623528E0;7.542909622E0;1.609036326E0
1.197738575E1;1.556684494E0;8.610092163E0;2.046094418E0
1.198738575E1;1.835564613E0;9.102102280E0;2.482443571E0
1.199738608E1;2.469992638E0;9.398062706E0;3.255663872E0
1.200738634E1;2.955769539E0;9.479993820E0;4.146866798E0
1.201738634E1;2.557333946E0;9.406084061E0;5.331520557E0
1.202738650E1;2.302607536E0;9.276351929E0;5.341941833E0
1.203738664E1;1.309824944E0;9.007829666E0;5.177835941E0
1.204738664E1;7.514472008E-1;8.618598938E0;4.595999241E0
1.205738664E1;-1.582355499E-1;7.363897800E0;2.381990910E0
1.206738664E1;-6.950044632E-2;7.249091625E0;2.394832373E0
1.207738673E1;-3.917455673E-1;6.760992050E0;1.719516754E0
1.208738682E1;-1.425671101E0;6.264134884E0;4.664782882E-1
1.209738682E1;-5.674515724E0;4.836855888E0;-3.580794096E0
1.210709932E1;-5.532199860E0;4.725474358E0;-3.362702370E0
1.211629765E1;-5.375290871E0;4.621390343E0;-3.107088089E0
1.212567271E1;-6.598727703E0;4.233530045E0;-3.978577614E0
1.213508448E1;-8.645977020E0;3.225065231E0;-5.168126106E0
1.214452892E1;-1.174282742E1;1.311890125E0;-5.867185116E0
1.215358018E1;-1.158121872E1;1.259309292E0;-5.588224888E0
1.216227888E1;-1.143509483E1;1.219299793E0;-5.349753857E0
1.217830588E1;-1.184450340E1;1.094801426E0;-5.031324863E0
1.218830488E1;-1.254006004E1;1.157131195E0;-3.905021191E0
1.219830488E1;-1.367096519E1;1.297087193E0;-2.329823017E0
1.220830488E1;-1.438084126E1;1.293657303E0;-1.391656637E0
1.221830522E1;-1.512789345E1;1.281853676E0;-6.053018570E-1
1.222830547E1;-1.627107048E1;1.248054981E0;6.886363029E-2
1.223830547E1;-1.685139084E1;1.289292812E0;9.648585320E-2
1.224830547E1;-1.739626694E1;1.526758671E0;-7.500877380E-1
1.225830561E1;-1.771678925E1;1.835821629E0;-1.520088673E0
1.226830561E1;-1.794054794E1;2.047884464E0;-2.700747013E0
1.227830561E1;-1.822389412E1;2.040331364E0;-4.077831268E0
1.228830561E1;-1.815537071E1;2.195047379E0;-3.812707901E0
1.229830570E1;-1.808707428E1;1.918875217E0;-3.980500221E0
1.230830578E1;-1.748819733E1;8.367018700E-1;-3.603544712E0
1.231830578E1;-1.574013901E1;-1.958647728E0;-1.038269520E0
1.232830585E1;-1.572573185E1;-1.834049702E0;-9.085350037E-1
1.233830592E1;-1.485856628E1;-3.009601355E0;3.570804596E-1
1.234830592E1;-1.381310749E1;-4.625853539E0;1.707954407E0
1.235830592E1;-9.162881851E0;-1.003318024E1;4.970234871E0
1.236786003E1;-9.328221321E0;-9.826175690E0;4.970547199E0
1.237701655E1;-9.530736923E0;-9.576031685E0;4.952672482E0
1.239304355E1;-7.579463005E0;-1.097663975E1;5.541646004E0
1.240304355E1;-4.405964851E0;-1.224256325E1;5.875073433E0
1.241304255E1;2.585749626E0;-1.460196686E1;5.344396114E0
1.242304255E1;7.667129517E0;-1.636220169E1;4.250112057E0
1.243304255E1;1.209764385E1;-1.811092567E1;3.101370335E0
1.244304230E1;1.842792511E1;-1.927729416E1;3.575447559E0
1.245304210E1;2.267850113E1;-1.866722870E1;4.454745770E0
1.246304194E1;2.951135063E1;-1.621849823E1;6.722206116E0
1.247304194E1;3.236437988E1;-1.509170055E1;8.401841164E0
1.248304181E1;3.374134827E1;-1.377254772E1;1.112118149E1
1.249304170E1;3.170275879E1;-1.165863609E1;1.165292358E1
1.250303930E1;3.153980637E1;-1.173392487E1;1.091456127E1
1.251303930E1;2.152565384E1;-9.579407692E0;8.475315094E0
1.252303922E1;1.598806381E1;-9.236175537E0;4.614456177E0
1.253303914E1;9.122092247E0;-7.758776188E0;4.030978680E-2
1.254303742E1;9.135575294E0;-7.937447548E0;-1.400759816E-1
1.255303742E1;7.678063393E0;-7.688976765E0;-1.060744286E0
1.256303736E1;7.007090569E0;-7.559310913E0;-1.721783638E0
1.257303730E1;5.745556831E0;-7.410754204E0;-3.491823673E0
1.258259136E1;5.807388306E0;-7.646590233E0;-3.504912853E0
1.259174788E1;5.889024734E0;-7.912065029E0;-3.450105190E0
1.260777288E1;5.723824501E0;-7.825873852E0;-3.543479443E0
1.261777288E1;4.152039528E0;-7.065919876E0;-4.642840862E0
1.262777988E1;2.216298103E0;-5.652886391E0;-6.224245071E0
1.263777988E1;1.476478577E0;-4.792731762E0;-7.038071632E0
1.264778022E1;5.718145370E-1;-3.619349480E0;-7.761702061E0
1.265778022E1;-5.788497925E-1;-1.968174219E0;-8.560797691E0
1.266778022E1;-2.056775093E0;1.987886429E-2;-9.238661766E0
1.267778038E1;-2.485749722E0;3.299975395E-1;-9.229756355E0
1.268778038E1;-3.263335228E0;7.986917496E-1;-9.130407333E0
1.269778038E1;-4.102253914E0;1.126099110E0;-8.683076859E0
1.270778038E1;-5.596960068E0;8.279881477E-1;-7.995207787E0
1.271778048E1;-5.647192001E0;4.485502243E-1;-7.768239498E0
1.272778057E1;-5.846942425E0;-1.362986565E-1;-7.432927608E0
1.273778057E1;-6.321723938E0;-1.080809593E0;-6.861289978E0
1.274778057E1;-8.174945831E0;-1.792315960E0;-5.432182312E0
1.275778057E1;-7.969070911E0;-1.978435040E0;-5.342550278E0
1.276778064E1;-8.819151878E0;-1.991641998E0;-4.769591331E0
1.277778070E1;-1.009323311E1;-1.762081146E0;-4.270579338E0
1.278778070E1;-1.310238075E1;-1.404480934E0;-3.714129925E0
1.279733481E1;-1.296262741E1;-1.521233559E0;-3.696399689E0
1.280649134E1;-1.284177303E1;-1.616419315E0;-3.675934315E0
1.282251634E1;-1.354088020E1;-1.633178711E0;-3.596925735E0
1.283251734E1;-1.417626953E1;-1.710939884E0;-3.588527441E0
1.284251734E1;-1.490914345E1;-1.736897469E0;-3.780191898E0
1.285251734E1;-1.666246796E1;-1.793941975E0;-4.865745544E0
1.286251767E1;-1.864311600E1;-1.865977287E0;-6.134848595E0
1.287251767E1;-2.047898293E1;-2.409242153E0;-7.044009209E0
1.288251767E1;-2.161045074E1;-3.364551544E0;-7.362001419E0
1.289251784E1;-2.303997803E1;-4.876763344E0;-6.771923065E0
1.290251798E1;-2.390940475E1;-5.779814720E0;-5.756708622E0
1.291251798E1;-2.432655907E1;-6.692167282E0;-4.377614021E0
1.292251798E1;-2.120975876E1;-8.195175171E0;-1.272350311E0
1.293251798E1;-2.158076477E1;-7.920738697E0;-1.436278343E0
1.294251807E1;-1.723267746E1;-8.070697784E0;-4.878256321E-1
1.295251807E1;-9.675167084E0;-7.935709953E0;-9.878010750E-1
1.296251807E1;-2.127406597E0;-7.429924965E0;-1.803803682E0
1.297251814E1;-2.608042240E0;-6.792440414E0;-2.428533554E0
1.298251814E1;2.230962944E1;-8.496080399E0;6.491498947E0
1.299251814E1;3.568078995E1;-8.330698967E0;1.777828789E1
1.300251814E1;4.164985657E1;-6.439329147E0;2.378910637E1
1.301207225E1;4.161907959E1;-6.357051849E0;2.409558868E1
1.302122878E1;4.166103363E1;-6.454857826E0;2.434468269E1
1.303725578E1;4.027479172E1;2.710445642E0;2.350192261E1
1.304725478E1;2.968600273E1;4.758131027E0;1.831564331E1
1.305723478E1;1.815314865E1;5.190952301E0;1.248696041E1
1.306723528E1;1.343917465E1;5.382600784E0;9.736990929E0
1.307723528E1;8.420025826E0;5.677498817E0;6.646464825E0
1.308723528E1;3.017131805E0;5.476069450E0;3.225048542E0
1.309723528E1;6.535634995E-1;4.974608421E0;1.593593121E0
1.310723544E1;-2.041800022E0;4.723272800E0;-1.061047614E-1
1.311723558E1;-3.247741222E0;4.423717499E0;-7.204349637E-1
1.312723558E1;-3.998506546E0;4.021940231E0;-1.246357322E0
1.313723570E1;-5.950278759E0;3.720787525E0;-1.409034371E0
1.314723580E1;-5.775262833E0;3.487576008E0;-1.384902477E0
1.315723580E1;-6.510608196E0;3.077336788E0;-1.207085133E0
1.316723580E1;-6.780119419E0;2.628270149E0;-7.987883091E-1
1.317723580E1;-7.527804375E0;2.780376911E0;7.242559195E-1
1.318723415E1;-7.180410385E0;2.418075562E0;8.489952087E-1
1.319723422E1;-7.110278130E0;2.510282993E0;1.237297893E0
1.320723422E1;-6.872743130E0;2.413271904E0;1.337116718E0
1.321723422E1;-6.643921375E0;2.229994774E0;4.617518485E-1
1.322678833E1;-6.458011627E0;2.082764149E0;6.348743439E-1
1.323594486E1;-6.262286186E0;1.940826893E0;8.336457014E-1
1.325197186E1;-6.331717968E0;1.950403690E0;6.301385760E-1
1.326197086E1;-6.523082256E0;1.869233608E0;-1.364940405E-1
1.327197086E1;-6.729447365E0;1.398642540E0;-8.335978389E-1
1.328197136E1;-6.595601082E0;1.006635666E0;-8.697813749E-1
1.329197136E1;-6.185765266E0;1.651391983E-1;-9.626204967E-1
1.330197136E1;-5.791086197E0;-5.793852806E-1;-9.025034904E-1
1.331197136E1;-5.633243561E0;-2.083334446E0;-1.304901242E0
1.332197136E1;-5.657557964E0;-2.594064713E0;-1.387258291E0
1.333197078E1;-6.035379410E0;-2.966027260E0;-1.676287651E0
1.334197078E1;-7.381547928E0;-3.118256092E0;-2.358516693E0
1.335197078E1;-9.858779907E0;-3.012324333E0;-3.045120716E0
1.336197088E1;-9.711365700E0;-2.997660637E0;-2.812493324E0
1.337197088E1;-1.115638733E1;-2.735341549E0;-2.935154676E0
1.338197088E1;-1.220599556E1;-2.332904816E0;-2.990924835E0
1.339197088E1;-1.340466309E1;-1.624927044E0;-2.736862421E0
1.340197095E1;-1.331346989E1;-1.558751583E0;-2.516953468E0
1.341197102E1;-1.348646641E1;-1.275881290E0;-2.205971718E0
1.342197102E1;-1.373678684E1;-1.011549950E0;-1.977210999E0
1.343197090E1;-1.527113914E1;-1.249261379E0;-2.270029545E0
1.344152507E1;-1.517842579E1;-1.146841526E0;-2.042459965E0
1.345068165E1;-1.509230995E1;-1.039473057E0;-1.824935913E0
1.346671965E1;-1.529821110E1;-1.180730820E0;-1.906338692E0
1.347670665E1;-1.588368988E1;-1.668214798E0;-1.878792286E0
1.348670665E1;-1.628926468E1;-2.323760509E0;-1.180892467E0
1.349670715E1;-1.636108017E1;-2.755002499E0;-4.243617058E-1
1.350670748E1;-1.636280823E1;-3.299925327E0;7.062072754E-1
1.351670748E1;-1.609563637E1;-3.939583063E0;1.862728596E0
1.352670228E1;-1.426005459E1;-5.308577061E0;3.418129683E0
1.353670245E1;-1.305008316E1;-5.912132263E0;3.815360308E0
1.354670245E1;-1.002911186E1;-7.143946171E0;3.931230307E0
1.355670244E1;-5.736210346E0;-8.656798363E0;3.287565708E0
1.356670244E1;-1.992380381E0;-9.671167374E0;2.321304321E0
1.357670255E1;5.855429649E0;-1.123621178E1;-3.953886032E-1
1.358670264E1;9.535570145E0;-1.224717140E1;-2.265746593E0
1.359670264E1;1.427914524E1;-1.367116547E1;-5.241351604E0
1.360670271E1;2.056814766E1;-1.276319885E1;-2.806479931E0
1.361670085E1;1.988074684E1;-1.272543144E1;-3.747554779E0
1.362670085E1;2.329848862E1;-1.369081306E1;2.591981888E-1
1.363670085E1;2.820042229E1;-1.471144962E1;7.460865498E0
1.364670085E1;3.305340195E1;-1.246601105E1;2.509909248E1
1.365625508E1;3.294297028E1;-1.239096451E1;2.440768433E1
1.367427908E1;3.124034119E1;-1.085372162E1;2.514047241E1
1.368427908E1;2.525902557E1;-9.001678467E0;2.226425362E1
1.369427908E1;1.446450424E1;-7.689606667E0;1.315281677E1
1.370426558E1;1.232088852E1;-7.516861439E0;1.046375847E1
1.371426591E1;8.092128754E0;-6.497816563E0;5.101696014E0
1.372426591E1;5.642648220E0;-5.349356174E0;1.745633125E0
1.373426591E1;4.200100899E0;-3.418135643E0;-2.320774198E-1
1.374426607E1;3.870141983E0;-2.763740063E0;-4.805126488E-1
1.375426607E1;3.073963642E0;-1.398099422E0;-8.288806677E-1
1.376426607E1;1.619530201E0;2.522234917E-1;-1.349071860E0
1.377426607E1;-3.606450319E0;3.861733437E0;-3.074685097E0
1.378426617E1;-3.420960665E0;3.685151577E0;-2.817327738E0
1.379426626E1;-5.666233063E0;5.335266590E0;-3.630903721E0
1.380426626E1;-7.521818638E0;6.528898239E0;-4.276832104E0
1.381426634E1;-1.091533279E1;7.238111973E0;-7.547331333E0
1.382426641E1;-1.065542603E1;7.132752419E0;-7.065248013E0
1.383426641E1;-1.206656647E1;6.511460304E0;-8.794179916E0
1.384426641E1;-1.320275593E1;5.616283894E0;-9.960016251E0
1.385426641E1;-2.002029419E1;1.667817116E0;-1.328205013E1
1.386382052E1;-1.971359825E1;1.609094620E0;-1.298157310E1
1.387297705E1;-1.943546867E1;1.556594849E0;-1.275289726E1
1.388901405E1;-2.180093956E1;5.294818878E-1;-1.314315224E1
1.389900305E1;-2.413961601E1;-6.665000916E-1;-1.290154362E1
1.390898405E1;-2.729638863E1;-2.537041664E0;-1.186906624E1
1.391898455E1;-2.894681168E1;-3.397713661E0;-1.091294098E1
1.392898455E1;-3.011256027E1;-3.984285831E0;-9.748161316E0
1.393898455E1;-3.002467155E1;-5.422561646E0;-7.756129742E0
1.394898455E1;-2.595215416E1;-7.875093937E0;-5.129051208E0
1.395898471E1;-2.329817200E1;-8.992530823E0;-3.862052917E0
1.396898486E1;-1.898614502E1;-1.046268940E1;-2.468455315E0
1.397898486E1;-1.100659943E1;-1.263535309E1;-1.294640064E0
1.398898497E1;3.641441822E0;-1.431451130E1;-2.040584564E0
1.399898507E1;3.223696232E0;-1.383053780E1;-1.917212963E0
1.400898507E1;1.102469063E1;-1.365397930E1;-3.368640900E0
1.401898507E1;1.726991844E1;-1.345750046E1;-3.914844990E0
1.402898507E1;2.483095360E1;-9.066689491E0;6.476830482E0
1.403855471E1;2.451385117E1;-9.003622055E0;6.094875336E0
1.404761971E1;2.421426201E1;-8.979583740E0;5.640996456E0
1.405699458E1;2.632834244E1;-7.727416992E0;1.101627827E1
1.406698458E1;2.790845299E1;-7.400815964E0;1.365441227E1
1.407699758E1;2.920554733E1;-6.305802345E0;1.193436241E1
1.408299108E1;2.917655182E1;-6.285864830E0;1.189913750E1
1.408765342E1;2.922842407E1;-6.344818592E0;1.193153000E1
1.410367842E1;2.654661942E1;-5.676836491E0;9.271572113E0
1.411367842E1;2.216404915E1;-5.419566154E0;6.273221016E0
1.412367842E1;1.412178040E1;-6.024419308E0;2.370391846E0
1.413366592E1;1.117717934E1;-6.567453384E0;1.511692166E0
1.414366592E1;7.838953972E0;-6.942071915E0;1.380781531E0
1.415366592E1;3.667712688E0;-6.615237713E0;2.709479809E0
1.416366732E1;1.556581497E0;-6.116463184E0;3.451987505E0
1.417366732E1;-9.180707932E-1;-4.904741287E0;3.856963158E0
1.418366732E1;-2.084200859E0;-4.085093498E0;3.309807777E0
1.419366732E1;-3.778618336E0;-2.630629539E0;1.984832406E0
1.420366743E1;-4.713936329E0;-1.735243320E0;9.106717110E-1
1.421366753E1;-4.567015648E0;-1.877570629E0;8.502929211E-1
1.422366662E1;-5.608436584E0;9.531030655E-1;-1.705617309E0
1.423366662E1;-5.403325081E0;2.362353325E0;-2.710545063E0
1.424366662E1;-5.461889744E0;3.326623440E0;-3.385417938E0
1.425366669E1;-5.367722988E0;3.243258476E0;-3.444072962E0
1.426366676E1;-7.014382839E0;6.305536747E0;-4.301639557E0
1.427366676E1;-7.486239433E0;6.826004505E0;-4.124471664E0
1.428366681E1;-7.039329052E0;8.256490707E0;-2.625615835E0
1.429322098E1;-6.984705448E0;8.212764740E0;-2.662634134E0
1.430237756E1;-6.941923141E0;8.183656693E0;-2.651751518E0
1.431840256E1;-6.882067680E0;8.245906830E0;-2.572742701E0
1.432840256E1;-6.305873871E0;8.208513260E0;-2.351703644E0
1.433840256E1;-5.591516018E0;7.874748707E0;-2.477422476E0
1.434840306E1;-5.188933372E0;7.724643707E0;-2.430487156E0
1.435840306E1;-4.755168915E0;7.582511425E0;-2.258590221E0
1.436840306E1;-4.455852032E0;7.335033894E0;-2.023695469E0
1.437840326E1;-4.442503452E0;6.666137695E0;-2.111577988E0
1.438840342E1;-4.636763573E0;5.953982353E0;-2.028122425E0
1.439840028E1;-4.658936501E0;5.470745564E0;-1.823073387E0
1.440840028E1;-4.515831947E0;4.578745842E0;-1.516933203E0
1.441840028E1;-5.016221046E0;2.446901798E0;-4.797797203E-1
1.442839798E1;-4.822240353E0;2.478827477E0;-3.838038445E-2
1.443839798E1;-5.287855148E0;1.850074768E0;3.126006126E-1
1.444839798E1;-6.185641766E0;9.820342064E-1;4.280283451E-1
1.445839806E1;-6.924982071E0;3.707680702E-1;3.703126907E-1
1.446839627E1;-6.783118248E0;4.109234810E-1;6.169042587E-1
1.447839627E1;-8.984251022E0;-1.201731205E0;-4.199085236E-1
1.448839627E1;-9.970788002E0;-1.732957840E0;-4.455871582E-1
1.449839627E1;-1.146540070E1;-2.204664230E0;-1.641750336E-1
1.450795044E1;-1.140919495E1;-2.144131184E0;-1.589107513E-2
1.451710701E1;-1.136566544E1;-2.077805519E0;1.249041557E-1
1.453313201E1;-1.145425034E1;-2.108930111E0;1.775765419E-1
1.454313701E1;-1.181963921E1;-1.939223289E0;2.896051407E-1
1.455313301E1;-1.283643341E1;-1.369134426E0;1.317815781E-1
1.456312551E1;-1.349244785E1;-1.033265114E0;-1.060862541E-1
1.457312385E1;-1.405676651E1;-8.992047310E-1;-5.814423561E-1
1.458312260E1;-1.447409630E1;-9.081201553E-1;-1.175583363E0
1.459312180E1;-1.478392982E1;-9.881353378E-1;-1.650171280E0
1.460312113E1;-1.587596989E1;-9.132990837E-1;-2.801094532E0
1.461312042E1;-1.687070084E1;-6.233921051E-1;-3.345666409E0
1.462311992E1;-1.842266846E1;-4.050469398E-1;-3.882612228E0
1.463311947E1;-1.925175476E1;-3.008179665E-1;-3.846424103E0
1.464311627E1;-1.929179955E1;-2.506136894E-1;-3.816330433E0
1.465311582E1;-2.038828087E1;-4.585409164E-1;-2.566565037E0
1.466311540E1;-2.018591309E1;-9.854102135E-1;-1.560092449E0
1.467311509E1;-1.789516068E1;-3.241089106E0;1.475325108E0
1.468311480E1;-1.804179764E1;-3.151329279E0;1.475159168E0
1.469311447E1;-1.697549820E1;-3.993315458E0;2.498714924E0
1.470311422E1;-1.479984665E1;-5.523946285E0;3.742532492E0
1.471311398E1;-4.179471016E0;-1.256788445E1;5.332229614E0
1.472266787E1;-4.463701248E0;-1.231001282E1;5.349060535E0
1.473182414E1;-4.765619755E0;-1.201480293E1;5.359243393E0
1.474785014E1;-3.125591516E0;-1.318556786E1;5.416704178E0
1.475785014E1;3.796868324E0;-1.842672348E1;5.021608829E0
1.476785114E1;1.334953880E1;-2.642776489E1;2.989463091E0
1.477785164E1;1.628799248E1;-2.930816650E1;1.232872486E0
1.478785164E1;1.814142036E1;-3.045932388E1;-1.338760376E0
1.479785189E1;1.854286957E1;-2.818666840E1;-1.642227173E0
1.480785208E1;1.848086929E1;-3.315217972E1;6.941520691E0
1.481785209E1;1.788536835E1;-3.435781097E1;9.132831573E0
1.482785209E1;1.753177261E1;-3.541443253E1;1.749938202E1
1.483785209E1;1.523356247E1;-3.004348564E1;3.174849319E1
1.484785220E1;3.639477730E0;-2.092151642E1;3.738603210E1
1.485785360E1;4.054361343E0;-2.068227196E1;3.662274170E1
1.486785360E1;-5.216989517E-1;-1.772822762E1;3.020984840E1
1.487785368E1;-3.173863411E0;-1.489651299E1;1.934207726E1
1.488785368E1;-3.417681217E0;-1.276268387E1;1.031599998E1
1.489785368E1;-3.479684830E0;-1.292822361E1;1.045852757E1
1.490785368E1;1.301107407E-1;-8.536427498E0;-4.113127708E0
1.491785368E1;1.518723488E0;-6.299645424E0;-7.540035248E0
1.492785374E1;1.738191605E0;-9.989259839E-1;-7.364835262E0
1.493740790E1;1.906351566E0;-9.149243236E-1;-7.622586727E0
1.494656448E1;2.082316875E0;-7.883754373E-1;-7.884627819E0
1.496258948E1;2.257093906E0;9.987342358E-2;-7.341143608E0
1.496268948E1;3.492408752E0;2.078332663E0;-6.551383972E0
1.497266848E1;5.296638489E0;3.710337162E0;-6.230328083E0
1.498266798E1;8.920872688E0;5.928909302E0;-6.501472473E0
1.499266765E1;1.188309860E1;7.742446423E0;-7.239840508E0
1.500266765E1;1.476156330E1;9.235809326E0;-8.073363304E0
1.501266765E1;1.680499077E1;1.018231392E1;-8.111154556E0
1.502266748E1;1.880538368E1;1.083212185E1;-5.759096622E0
1.503266734E1;1.942534828E1;1.104928684E1;-2.860206127E0
1.504266721E1;1.980149841E1;1.095648670E1;3.534227848E0
1.505266721E1;1.992619896E1;9.688488960E0;1.352512550E1
1.506266721E1;1.991045380E1;9.656583786E0;1.419933891E1
1.507266712E1;1.958584023E1;8.864341736E0;1.669793510E1
1.508266712E1;1.890934753E1;7.755094528E0;1.695561790E1
1.509266712E1;1.544740963E1;6.214423180E0;1.119765282E1
1.510266705E1;1.517476082E1;5.776738644E0;1.152057076E1
1.511266698E1;1.276879787E1;4.646515369E0;8.600875854E0
1.512266692E1;9.615856171E0;3.285295248E0;5.810996056E0
1.513266692E1;6.861072540E0;2.190486670E0;4.068737507E0
1.514222103E1;6.802535057E0;1.553451300E0;4.489616394E0
1.515137756E1;6.789175034E0;9.281361103E-1;4.951875687E0
1.516740256E1;-7.576479912E-1;3.415567875E-1;1.032567501E0
1.517740356E1;-4.075839996E0;-3.080637455E-1;2.698450089E-1
1.518740356E1;-9.477661133E0;-3.629984856E-1;-2.058105469E0
1.519740306E1;-9.386085510E0;-9.086670876E-1;-1.357306600E0
1.520740272E1;-1.308331299E1;-1.212823391E0;-3.753440619E0
1.521740247E1;-1.626238251E1;-1.856111526E0;-6.407225132E0
1.522740247E1;-1.881767845E1;-2.260431290E0;-8.422240257E0
1.523740231E1;-2.321469498E1;-1.790153027E0;-1.159696388E1
1.524740216E1;-2.489353561E1;-2.015070915E0;-1.257414627E1
1.525740216E1;-2.632172203E1;-2.905533314E0;-1.238727283E1
1.526740205E1;-2.557004929E1;-5.621571541E0;-6.690330029E0
1.527740195E1;-2.557334518E1;-5.576447487E0;-6.536593437E0
1.528740186E1;-2.412869072E1;-6.576778412E0;-4.208807468E0
1.529740178E1;-2.039327431E1;-8.063772202E0;-1.062294245E0
1.530740178E1;-1.617753983E1;-9.257840157E0;7.965742350E-1
1.531740170E1;-1.663878632E1;-8.516704559E0;1.220291257E0
1.532740164E1;3.762447357E0;-1.001282120E1;1.588287354E0
1.533740164E1;1.131319427E1;-1.080701733E1;1.474593163E0
1.534740158E1;1.796099854E1;-1.224554729E1;2.381272078E0
1.535695563E1;1.780039978E1;-1.207158375E1;2.211365461E0
1.536611211E1;1.765320587E1;-1.192661285E1;2.005589247E0
1.538213811E1;2.926059723E1;-1.149086761E1;9.411153793E0
1.539213911E1;3.429927826E1;-9.755897522E0;1.350495625E1
1.540213911E1;3.769499969E1;-9.145445824E0;1.345964527E1
1.541214211E1;3.557579803E1;-8.160114288E0;1.062550735E1
1.542214177E1;2.841284370E1;-6.705609798E0;6.373185158E0
1.543214152E1;1.876686096E1;-6.271756172E0;2.792195559E0
1.544213952E1;1.145297337E1;-6.351978779E0;1.250202894E0
1.545213952E1;2.467234612E0;-5.648522854E0;1.881791115E0
1.546213938E1;-1.506074905E0;-4.897695065E0;3.014939308E0
1.547213938E1;-5.214171410E0;-3.613784552E0;4.533370018E0
1.548213938E1;-6.856542110E0;-9.672012329E-1;3.806648254E0
1.549213928E1;-6.727309704E0;-1.120340347E0;3.858722687E0
1.550213919E1;-6.304327965E0;4.336643219E-1;2.881454945E0
1.551213910E1;-5.736418724E0;1.508980274E0;1.902898192E0
1.552213910E1;-6.176559925E0;3.318993568E0;5.991395712E-1
1.553213903E1;-6.043394566E0;3.203692913E0;7.150316238E-1
1.554213896E1;-7.403239250E0;4.795256138E0;6.329560280E-1
1.555213896E1;-8.198369980E0;5.663158894E0;9.781178832E-1
1.556213896E1;-8.693317413E0;6.159954548E0;1.383466959E0
1.557169302E1;-8.569168091E0;6.055537224E0;1.430091381E0
1.558084949E1;-8.445006371E0;5.969952583E0;1.528195143E0
1.559687549E1;-1.007545757E1;7.258032799E0;2.663046598E0
1.560687549E1;-1.012613201E1;6.869543076E0;2.675437450E0
1.561687649E1;-9.920169830E0;6.313234329E0;1.659313440E0
1.562687649E1;-9.883712769E0;6.326371670E0;6.110522747E-1
1.563687649E1;-9.823381424E0;6.643229961E0;-3.726544380E-1
1.564687674E1;-9.568262100E0;6.819458485E0;-1.498863935E0
1.565687674E1;-9.163549423E0;6.702648163E0;-2.015000343E0
1.566687674E1;-9.035058975E0;6.855736732E0;-1.924709082E0
1.567687674E1;-9.062026978E0;7.205182076E0;-1.779642582E0
1.568687687E1;-9.154556274E0;7.500413418E0;-1.353130817E0
1.569687698E1;-9.243902206E0;6.089321613E0;-1.198782921E-1
1.570687698E1;-9.129977226E0;6.028628349E0;-8.488774300E-2
1.571687698E1;-9.135052681E0;4.744206905E0;5.571744442E-1
1.572687706E1;-9.146097183E0;3.601878166E0;1.018201113E0
1.573687706E1;-9.142412186E0;2.845118046E0;1.212836742E0
1.574687706E1;-8.961994171E0;2.783534527E0;1.297298431E0
1.575687706E1;-9.820757866E0;1.232288837E0;1.467526197E0
1.576687712E1;-1.025645638E1;7.726693153E-1;1.595081806E0
1.577687718E1;-1.087819195E1;3.900060654E-1;1.693841457E0
1.578643135E1;-1.074863052E1;3.840332031E-1;1.799751282E0
1.579558787E1;-1.063381004E1;4.030718803E-1;1.931452274E0
1.581161487E1;-1.326024914E1;-1.978731155E-1;1.325719118E0
1.582161487E1;-1.467057991E1;-4.700565338E-2;8.176798820E-1
1.583161387E1;-1.592484474E1;-3.384637833E-2;-1.922750473E-2
1.584161337E1;-1.631296158E1;-1.078281403E-1;-3.844509125E-1
1.585161304E1;-1.696523476E1;-1.634440422E-1;-9.731855392E-1
1.586161304E1;-1.755446053E1;-1.089887619E-1;-1.425764084E0
1.587161664E1;-1.792896271E1;-1.860370636E-1;-1.824940681E0
1.588161647E1;-1.829308510E1;-5.630383492E-1;-2.171952724E0
1.589161647E1;-1.833833313E1;-9.268274307E-1;-1.950144291E0
1.590161747E1;-1.815113068E1;-1.686842442E0;-1.201395035E0
1.591161736E1;-1.612419128E1;-3.388472080E0;1.612756252E0
1.592161726E1;-1.633156013E1;-3.246473789E0;1.631063461E0
1.593161717E1;-1.473454857E1;-4.575082779E0;3.050093651E0
1.594161717E1;-1.315909958E1;-6.083857059E0;4.007238865E0
1.595161709E1;-8.092365265E0;-1.172712135E1;6.070182800E0
1.596132945E1;-8.819536209E0;-1.120924950E1;5.919298649E0
1.597052765E1;-9.184200287E0;-1.091247272E1;5.823491096E0
1.597990265E1;-7.666275978E0;-1.232744598E1;6.266418457E0
1.598931441E1;-3.021068096E0;-1.565902328E1;7.130436420E0
1.599875880E1;1.247194386E1;-2.299108505E1;7.428788185E0
1.600791527E1;1.163352680E1;-2.219527054E1;6.872448921E0
1.601671392E1;1.124981976E1;-2.177088928E1;6.540599346E0
1.602576150E1;1.310532475E1;-2.247717857E1;6.313150406E0
1.603576250E1;1.819024277E1;-2.331455421E1;5.585783958E0
1.604574149E1;2.710397530E1;-2.153524017E1;8.995296478E0
1.605574100E1;3.316321945E1;-1.838490486E1;1.239512730E1
1.606574100E1;4.052888489E1;-1.539795971E1;1.565431786E1
1.607574074E1;5.170269012E1;-1.274767494E1;1.603459358E1
1.608574054E1;5.408732605E1;-1.002886868E1;7.797971725E0
1.609574038E1;4.978461075E1;-8.549707413E0;4.037356377E0
1.610574024E1;4.117737198E1;-8.607589722E0;4.285540581E-1
1.611574024E1;2.609230995E1;-1.157876110E1;-1.953609467E0
1.612574012E1;6.392238617E0;-1.192051411E1;2.004123449E0
1.613574002E1;6.473147392E0;-1.239583015E1;1.279996634E0
1.614574002E1;-2.275552750E-1;-1.122860718E1;3.500756502E0
1.615573994E1;-1.997952461E0;-1.004794884E1;3.365175009E0
1.616573986E1;-1.935441971E0;-6.398904324E0;-4.817705154E-1
1.617573979E1;-1.852891922E0;-6.589970589E0;-4.700766206E-1
1.618573979E1;-1.165541172E0;-5.342729568E0;-2.693964005E0
1.619573979E1;-7.885084152E-1;-3.840449333E0;-5.529226303E0
1.620573973E1;-4.255860329E0;4.875912666E-1;-9.827594757E0
1.621529379E1;-4.134611130E0;2.630252838E-1;-9.634994507E0
1.622445026E1;-4.003334045E0;4.099845886E-2;-9.468113899E0
1.624047726E1;-4.577942371E0;6.132125854E-1;-9.913434982E0
1.625047626E1;-6.596723557E0;2.490122318E0;-1.137131119E1
1.626047626E1;-8.550975800E0;4.431622505E0;-1.282141590E1
1.627047626E1;-8.813564301E0;4.678145885E0;-1.294045639E1
1.628047659E1;-8.271286011E0;4.309952259E0;-1.254949474E1
1.629047684E1;-6.308772087E0;4.046696663E0;-1.144494438E1
1.630047684E1;-2.780988693E0;4.464418411E0;-1.004346466E1
1.631047701E1;-1.992271900E0;4.550804138E0;-9.798239708E0
1.632047715E1;-7.424983978E-1;4.566035748E0;-9.698802948E0
1.633047715E1;2.472620010E-1;4.471638203E0;-1.015042305E1
1.634047715E1;4.895076752E-1;4.728148937E0;-1.018702030E1
1.635047495E1;6.408367157E-1;4.562908649E0;-1.002013111E1
1.636047504E1;9.290385246E-1;4.622812748E0;-9.002856255E0
1.637047512E1;9.658303261E-1;3.860016346E0;-7.416239738E0
1.638047512E1;2.728214264E-1;2.690429688E0;-3.387813568E0
1.639047326E1;3.777003288E-1;2.562997341E0;-3.441246271E0
1.640047273E1;1.762189865E-1;1.980762005E0;-2.318937540E0
1.641047273E1;-4.250779152E-1;1.018949509E0;-8.622890711E-1
1.642047273E1;-9.125409126E-1;3.600487709E-1;-8.450543880E-2
1.643002684E1;-7.620210648E-1;2.111468315E-1;-1.143563986E-1
1.643918337E1;-5.980930328E-1;5.903291702E-2;-1.233025193E-1
1.645521037E1;-2.693318844E0;-1.509169579E0;1.167172194E0
1.646520937E1;-3.727532148E0;-2.764627934E0;1.283773184E0
1.647520937E1;-5.834876537E0;-4.160659790E0;1.332837939E0
1.648521587E1;-6.230976582E0;-4.441015244E0;1.295025826E0
1.649521620E1;-7.403865337E0;-4.800333023E0;1.154049635E0
1.650521645E1;-8.080260277E0;-5.412335396E0;8.531418443E-1
1.651521645E1;-8.214282990E0;-6.034848213E0;5.122679472E-1
1.652521645E1;-8.444485664E0;-6.065713406E0;1.087070107E-1
1.653521659E1;-8.538183212E0;-5.166200638E0;-2.691705227E-1
1.654521659E1;-7.756444931E0;-4.610683918E0;-1.286760092E0
1.655521659E1;-7.563158035E0;-6.056206703E0;-1.862800121E0
1.656521669E1;-7.311471939E0;-7.191854954E0;-1.178739309E0
1.657521669E1;-7.153790951E0;-6.531790733E0;-1.073697805E0
1.658521669E1;-6.879032612E0;-5.982067108E0;-1.039940953E0
1.659521669E1;-5.640713692E0;-6.832024574E0;-2.188451290E0
1.660521483E1;-5.719901085E0;-6.778394699E0;-2.339764118E0
1.661521490E1;-5.567192078E0;-6.940244675E0;-2.545139790E0
1.662521490E1;-4.842594624E0;-7.390386581E0;-2.570235729E0
1.663521490E1;-3.992327213E0;-6.578259468E0;-2.244243860E0
1.664476907E1;-4.045980453E0;-6.512891769E0;-2.503761530E0
1.665392564E1;-4.089790821E0;-6.443126678E0;-2.780248165E0
1.666995064E1;-4.063454628E0;-6.311445236E0;-2.713210344E0
1.667995064E1;-4.012273788E0;-6.051703930E0;-2.826757431E0
1.668995064E1;-3.374686956E0;-5.743628502E0;-3.026338816E0
1.669995114E1;-2.537557840E0;-5.601159096E0;-2.995387077E0
1.670995148E1;-1.384922504E0;-5.316369534E0;-2.387385607E0
1.671995148E1;-6.445541382E-1;-4.672427177E0;-1.376533866E0
1.672995148E1;2.225637436E-1;-3.604413748E0;2.472047806E-1
1.673995148E1;1.076817513E0;-2.048304558E0;1.559107542E0
1.674995162E1;1.722828388E0;-5.509233475E-1;1.552533388E0
1.675995162E1;2.096138954E0;9.627695084E-1;5.795049667E-1
1.676995162E1;1.989532471E0;4.296564579E0;1.180444717E0
1.677995172E1;1.945247173E0;4.530813217E0;9.200401306E-1
1.678995181E1;2.191917419E0;6.936476707E0;2.197884560E0
1.679995181E1;3.735471249E0;9.050703049E0;4.353696823E0
1.680995181E1;9.848324776E0;1.341096115E1;9.856698990E0
1.681995081E1;9.665361404E0;1.395082092E1;9.620211601E0
1.682995088E1;1.016054440E1;1.474799633E1;1.013809395E1
1.683995088E1;1.087407303E1;1.597314644E1;1.124443626E1
1.684995088E1;1.144888496E1;1.871946526E1;1.183392715E1
1.685950499E1;1.142248058E1;1.878800583E1;1.182263279E1
1.686866156E1;1.140350342E1;1.877925301E1;1.185498047E1
1.688468656E1;1.140829086E1;1.898036575E1;1.148627472E1
1.689468656E1;1.075938606E1;1.892175865E1;9.665744781E0
1.690468656E1;8.993024826E0;1.799358749E1;7.020565510E0
1.691468656E1;8.116436958E0;1.708807182E1;5.945448875E0
1.692468690E1;7.032458782E0;1.575263023E1;4.658392429E0
1.693468690E1;5.631473541E0;1.348270893E1;3.086244106E0
1.694468690E1;4.134226322E0;1.027525902E1;1.625642776E0
1.695468706E1;3.567736149E0;8.844861984E0;1.261739731E0
1.696468706E1;2.689389229E0;6.927247047E0;8.198952675E-1
1.697468706E1;1.140676498E0;4.276132107E0;4.079787731E-1
1.698468706E1;-1.667200089E0;4.204583168E-1;-3.056902885E-1
1.699468716E1;-1.503055573E0;9.987068176E-2;-5.806350708E-2
1.700468725E1;-2.943264008E0;-1.945726395E0;-3.072421551E-1
1.701468725E1;-4.232671738E0;-3.557661057E0;-5.357832909E-1
1.702468733E1;-6.848145962E0;-6.229469299E0;-1.118285775E0
1.703468554E1;-6.413497925E0;-6.748167515E0;-5.324333906E-1
1.704468554E1;-6.651218891E0;-7.484932423E0;-4.821165800E-1
1.705468554E1;-7.266751289E0;-8.601500511E0;-8.508260250E-1
1.706468554E1;-7.601173401E0;-9.251929283E0;-9.342050552E-1
1.707423966E1;-7.392197609E0;-9.408330917E0;-5.972054005E-1
1.708339618E1;-7.189979553E0;-9.540266037E0;-2.632300854E-1
1.709942418E1;-8.784517288E0;-1.022740173E1;-1.000644207E0
1.710942218E1;-9.503908157E0;-1.028055191E1;-7.366577387E-1
1.711940318E1;-1.087779045E1;-1.103295708E1;-1.066561341E0
1.712940368E1;-1.124037552E1;-1.090443897E1;-9.111662507E-1
1.713940368E1;-1.108510971E1;-1.087325573E1;-6.593044400E-1
1.714940368E1;-1.109862232E1;-1.065865135E1;-2.871177197E-1
1.715940368E1;-1.069881535E1;-1.072848797E1;-5.098018646E-1
1.716940385E1;-1.056135559E1;-1.078340435E1;-4.076437950E-1
1.717940399E1;-1.046162796E1;-1.074739742E1;-2.199753523E-1
1.718940399E1;-1.021374512E1;-1.046129799E1;-1.439841986E-1
1.719940410E1;-1.011717129E1;-1.049128056E1;-2.342772484E-2
1.720940420E1;-9.939579010E0;-1.056529522E1;-5.295038223E-3
1.721940420E1;-9.647006989E0;-1.070603752E1;-3.511836529E-1
1.722940420E1;-9.719802856E0;-1.078358269E1;-1.117356300E0
1.723940420E1;-9.595875740E0;-1.091372395E1;-1.945802212E0
1.724940427E1;-9.766802788E0;-1.085715008E1;-2.020240545E0
1.725940427E1;-9.598888397E0;-1.144869423E1;-2.185238123E0
1.726940427E1;-8.535154343E0;-1.175965881E1;-2.171801567E0
1.727940433E1;-7.562961578E0;-1.170444965E1;-2.240088940E0
1.728895850E1;-7.932044029E0;-1.154461193E1;-2.613444328E0
1.729811507E1;-8.328367233E0;-1.133652115E1;-3.068790436E0
1.731414007E1;-2.582283497E0;-1.018491077E1;-8.469710946E-1
1.732414007E1;-4.799790382E-1;-8.917464256E0;7.710241079E-1
1.733414007E1;2.838367462E0;-4.438639641E0;5.747467041E0
1.734414057E1;4.244570255E0;-1.397465706E0;7.493597507E0
1.735414057E1;7.695369720E0;3.042203426E0;1.010640049E1
1.736414057E1;1.255403328E1;7.152455807E0;1.179946041E1
1.737414077E1;1.870025444E1;1.287478828E1;1.323829269E1
1.738414077E1;2.142966270E1;1.548482037E1;1.339854240E1
1.739414077E1;2.479350662E1;1.789638329E1;1.331790543E1
1.740414077E1;2.883089066E1;2.059946823E1;1.227256107E1
1.741414088E1;2.649394608E1;2.340786362E1;8.044826508E0
1.742414098E1;2.642578506E1;2.353173065E1;8.068995476E0
1.743414098E1;1.916990662E1;2.246684074E1;3.102995872E0
1.744414098E1;1.635420227E1;2.112932968E1;1.492588997E0
1.745414106E1;9.595880508E0;1.610106277E1;3.577402830E-1
1.746413913E1;9.677092552E0;1.591580391E1;4.458323717E-1
1.747413913E1;7.985104561E0;1.366694641E1;6.678618193E-1
1.748413913E1;5.704551697E0;1.000259972E1;1.229615450E0
1.749413919E1;4.746595383E0;7.382085800E0;1.752089143E0
1.750369347E1;4.908348560E0;7.095159054E0;2.026118279E0
1.751285004E1;5.104296684E0;6.790832520E0;2.335299969E0
1.752887504E1;1.453139305E0;2.000035286E0;2.282627583E0
1.753885004E1;-1.431059837E-1;-4.698629379E-1;2.116653204E0
1.754887604E1;-2.698979855E0;-2.915769339E0;1.835687518E0
1.755888854E1;-3.175392866E0;-3.638499498E0;2.044527292E0
1.756889688E1;-5.168925762E0;-4.973348618E0;1.900285959E0
1.757890313E1;-6.449919701E0;-5.905754566E0;2.025672913E0
1.758890833E1;-7.735714912E0;-6.904034615E0;2.144814253E0
1.759891266E1;-7.825002670E0;-7.206236839E0;2.110715628E0
1.760891623E1;-8.817255974E0;-7.374568462E0;1.794667482E0
1.761891936E1;-9.313608170E0;-7.766407490E0;1.734556437E0
1.762892213E1;-1.056571102E1;-7.926459789E0;1.542971849E0
1.763892203E1;-1.029552364E1;-8.059546471E0;1.600769877E0
1.764892430E1;-1.056034279E1;-7.651354313E0;1.476674795E0
1.765892639E1;-1.040122509E1;-7.192825794E0;1.311934352E0
1.766892839E1;-9.879337311E0;-6.795736313E0;1.044541836E0
1.767893017E1;-8.981716156E0;-5.775681496E0;3.961614370E-1
1.768893184E1;-8.660345078E0;-5.576198578E0;2.563555241E-1
1.769893340E1;-8.584255219E0;-4.579431057E0;-4.104635715E-1
1.770893487E1;-8.770879745E0;-3.902979851E0;-7.062608004E-1
1.771849043E1;-8.674044609E0;-3.942341805E0;-7.378951311E-1
1.772764832E1;-8.609770775E0;-3.977194786E0;-8.095891476E-1
1.774367332E1;-8.221909523E0;-2.753757477E0;-4.767951965E-1
1.775367332E1;-7.042060852E0;-2.936808109E0;-2.257418633E-2
1.776367432E1;-6.144857407E0;-3.233691692E0;8.365864754E-1
1.777367432E1;-6.181777954E0;-2.768776417E0;1.202229500E0
1.778367432E1;-6.501134872E0;-1.972691059E0;1.138392091E0
1.779367432E1;-6.700400352E0;-7.119550705E-1;5.016150475E-1
1.780367452E1;-6.963658333E0;1.644353867E-1;-7.896769047E-2
1.781367469E1;-7.577754974E0;1.731310844E0;-1.532731056E0
1.782367469E1;-8.199066162E0;2.677780151E0;-2.680164814E0
1.783367481E1;-8.951142311E0;3.426676750E0;-3.643937588E0
1.784367492E1;-1.080645847E1;4.186833382E0;-3.969997883E0
1.785367492E1;-1.087922859E1;4.234727859E0;-3.859539509E0
1.786367492E1;-1.179706287E1;4.457372665E0;-3.202371120E0
1.787367492E1;-1.236534309E1;3.931793213E0;-2.167906284E0
1.788367500E1;-1.255274200E1;3.232892036E0;-1.090990782E0
1.789353036E1;-1.259162712E1;3.327443123E0;-7.808814049E-1
1.790286362E1;-1.260037327E1;3.381981850E0;-6.017663479E-1
1.791223862E1;-1.440320683E1;2.065171242E0;8.922154903E-1
1.792165044E1;-1.592023659E1;1.585773468E0;6.882135868E-1
1.793109494E1;-1.686773682E1;9.421777725E-1;4.151151180E-1
1.794025147E1;-1.680992508E1;1.145135880E0;9.916634560E-1
1.794905017E1;-1.678043175E1;1.265396118E0;1.284166574E0
1.795809779E1;-2.050371361E1;-6.140522957E-1;-7.006263733E-1
1.796809779E1;-2.182174683E1;-9.095234871E-1;-9.316573143E-1
1.797809879E1;-2.235616684E1;-1.730123043E0;-1.003855705E0
1.798809429E1;-2.240327835E1;-3.569710255E0;-1.020387173E0
1.799809429E1;-2.162514114E1;-5.023742676E0;-6.958780289E-1
1.800809454E1;-1.967131233E1;-7.042075157E0;-1.141834259E-2
1.801809474E1;-1.394778919E1;-1.114068031E1;2.300551176E0
1.802809474E1;-1.249234962E1;-1.199081421E1;2.963809490E0
1.803809474E1;-6.347331524E0;-1.601925278E1;4.658594131E0
1.804809474E1;5.133970737E0;-2.193530273E1;5.986558437E0
1.805809485E1;2.919924927E1;-2.734752655E1;6.340086937E0
1.806809485E1;2.878148460E1;-2.687034225E1;6.321107388E0
1.807809485E1;3.936396027E1;-2.479570770E1;3.300276041E0
1.808809493E1;5.096422958E1;-1.730839539E1;4.697828770E0
1.809809493E1;7.044544983E1;-1.721657944E1;2.749379921E1
1.810809393E1;6.960385132E1;-1.689274025E1;2.574965096E1
1.811809393E1;6.937863922E1;-1.882135010E1;2.963218307E1
1.812809393E1;5.351498413E1;-1.610869026E1;2.637740707E1
1.813809399E1;1.183718681E0;-1.346561527E1;1.100664520E1
1.814764816E1;1.504813194E0;-1.409361076E1;1.034995365E1
1.815680473E1;1.846245766E0;-1.459262466E1;9.772036552E0
1.817282974E1;-1.802517414E0;-1.230137253E1;8.086519241E0
1.818283074E1;1.631279469E0;-1.269182873E1;4.759830475E0
1.819280274E1;6.264565945E0;-1.277906036E1;1.581160903E0
1.820280224E1;7.450789928E0;-1.147519112E1;-6.207259893E-1
1.821280057E1;7.329696178E0;-1.017953873E1;-4.028492451E0
1.822280057E1;4.668899536E0;-8.394004822E0;-8.404600143E0
1.823280057E1;3.812863827E0;-7.903384209E0;-9.330956459E0
1.824280040E1;4.159593582E-1;-5.634838581E0;-1.123188210E1
1.825280026E1;-9.715862274E-1;-4.702537537E0;-1.178833485E1
1.826280026E1;-3.341427565E0;-2.275631428E0;-1.260430717E1
1.827280015E1;-4.708540440E0;-7.632379532E-1;-1.318371391E1
1.828279775E1;-4.375310898E0;-1.094063282E0;-1.277111816E1
1.829279766E1;-7.895016670E0;2.297436237E0;-1.455907917E1
1.830279766E1;-9.261552811E0;3.723773003E0;-1.454944897E1
1.831279766E1;-9.248559952E0;4.596017838E0;-1.666359138E1
1.832279566E1;-9.032514572E0;4.476682663E0;-1.597297192E1
1.833279565E1;-9.012065887E0;4.351509094E0;-1.618469048E1
1.834279566E1;-9.079666138E0;4.591784477E0;-1.693379593E1
1.835279560E1;-8.575998306E0;4.483635902E0;-1.716071892E1
1.836234965E1;-8.511997223E0;4.480707169E0;-1.697528458E1
1.837150612E1;-8.456879616E0;4.475490570E0;-1.684470367E1
1.838753212E1;-7.681158066E0;3.278389931E0;-1.570745850E1
1.839753312E1;-8.028109550E0;2.995630264E0;-1.409413719E1
1.840752112E1;-8.260620117E0;2.126927376E0;-1.109128094E1
1.841752062E1;-8.527894974E0;1.656185150E0;-9.299688339E0
1.842752062E1;-8.818199158E0;1.164758682E0;-7.737343788E0
1.843752062E1;-9.248687744E0;3.268241882E-2;-6.014607906E0
1.844752042E1;-9.370880127E0;-5.840878487E-1;-5.359352112E0
1.845752026E1;-9.537474632E0;-1.429893970E0;-5.010183811E0
1.846752011E1;-9.450847626E0;-1.952605724E0;-4.619791031E0
1.847752011E1;-9.399696350E0;-2.276595592E0;-4.052278519E0
1.848752000E1;-9.156661987E0;-2.518090725E0;-3.715778828E0
1.849751990E1;-9.167119980E0;-2.498004436E0;-3.673032045E0
1.850751990E1;-8.260843277E0;-4.191095829E0;-2.135716677E0
1.851752207E1;-6.366478920E0;-4.643791199E0;-3.388414383E-1
1.852752199E1;-6.181688309E-1;-5.308292389E0;2.118557930E0
1.853752192E1;-8.282680511E-1;-5.238448143E0;1.979426146E0
1.854752185E1;1.194588184E0;-5.450029373E0;2.518728256E0
1.855752185E1;3.622452259E0;-5.044929504E0;3.925628185E0
1.856752179E1;9.937612534E0;-3.708215237E0;1.004644585E1
1.857707585E1;9.780683517E0;-3.653205872E0;9.854793549E0
1.858623232E1;9.631834030E0;-3.593296051E0;9.674012184E0
1.860225932E1;1.101568317E1;-3.162339687E0;1.099561214E1
1.861225832E1;1.414755917E1;-2.126476765E0;1.349810410E1
1.862225832E1;1.713706017E1;-2.167159557E0;1.403818607E1
1.863225832E1;1.762854385E1;-2.432003498E0;1.320749569E1
1.864225865E1;1.664286995E1;-2.898167610E0;1.110116386E1
1.865225890E1;1.270389938E1;-2.812354565E0;8.288784027E0
1.866225890E1;5.967628956E0;-2.257863998E0;4.217031956E0
1.867225890E1;3.902439117E0;-1.998416424E0;2.680616856E0
1.868225905E1;1.184022903E0;-1.427840710E0;8.803443909E-1
1.869225905E1;-2.768969774E0;-4.061036110E-1;-1.176160932E0
1.870225905E1;-4.718176842E0;4.296092987E-1;-2.356016159E0
1.871225635E1;-4.617726326E0;3.519830704E-1;-2.450957060E0
1.872225644E1;-8.573108673E0;4.078440666E0;-4.444293499E0
1.873225652E1;-9.742746353E0;6.092257500E0;-4.599973679E0
1.874225652E1;-1.101991558E1;9.005030632E0;-3.292035580E0
1.875225659E1;-1.096390915E1;8.964303017E0;-3.410606384E0
1.876225666E1;-1.189374352E1;1.055423355E1;-3.190665960E0
1.877225666E1;-1.234593391E1;1.091111374E1;-3.074064970E0
1.878225666E1;-1.245000458E1;1.045567894E1;-3.188819885E0
1.879181077E1;-1.238809586E1;1.042729378E1;-3.039204597E0
1.880096729E1;-1.230529213E1;1.039986801E1;-2.774291039E0
1.881699429E1;-1.407700062E1;7.287405968E0;-5.357933998E0
1.882699429E1;-1.589948463E1;5.873435020E0;-7.227915764E0
1.883699329E1;-1.849733543E1;4.307105064E0;-1.046689224E1
1.884699279E1;-1.905683136E1;3.184983253E0;-1.173835373E1
1.885699246E1;-1.931283951E1;2.130488396E0;-1.248130417E1
1.886699246E1;-1.934265518E1;8.193197250E-1;-1.258795166E1
1.887699226E1;-1.915420151E1;-2.718162537E-2;-1.180011177E1
1.888699209E1;-1.871669006E1;-1.567424297E0;-9.225731850E0
1.889699209E1;-1.829033661E1;-2.665102005E0;-7.433053017E0
1.890699197E1;-1.730658340E1;-4.712866783E0;-3.775002003E0
1.891699186E1;-1.630774689E1;-6.926757812E0;7.002999783E-1
1.892699176E1;-1.639857101E1;-6.897342682E0;6.615970135E-1
1.893699166E1;-1.442874146E1;-7.909628391E0;3.018118143E0
1.894699166E1;-1.154434776E1;-8.636706352E0;4.385683060E0
1.895699159E1;-2.120327234E0;-1.018768692E1;4.115563393E0
1.896698959E1;-2.653661489E0;-9.749958038E0;4.319452763E0
1.897698959E1;1.158715248E0;-9.804974556E0;3.953956127E0
1.898698952E1;7.915836811E0;-9.762104988E0;4.132431984E0
1.899698946E1;2.186880875E1;-6.541833401E0;6.387791634E0
1.900654352E1;2.160683250E1;-6.278037071E0;6.415951252E0
1.901569999E1;2.132751083E1;-6.021615982E0;6.366274834E0
1.903172699E1;2.489487267E1;-4.654526711E0;7.853074074E0
1.904172699E1;3.256675720E1;-3.427174091E0;1.116549492E1
1.905172599E1;3.917311096E1;-4.648106575E0;1.104744530E1
1.906172549E1;3.909083176E1;-5.127611637E0;9.693475723E0
1.907172549E1;3.370750427E1;-4.896011353E0;5.695284843E0
1.908172524E1;2.357859612E1;-3.465214252E0;2.023396254E0
1.909172504E1;8.850576401E0;-3.618106127E0;-1.424551964E0
1.910172488E1;5.134788513E0;-4.110875130E0;-1.997949123E0
1.911172488E1;-6.509513855E-1;-4.118766785E0;-2.099057913E0
1.912172488E1;-4.601822853E0;-3.504180670E0;-9.538795948E-1
1.913172476E1;-5.987887859E0;-3.426184654E0;-1.399397850E-2
1.914172476E1;-5.882398129E0;-3.618869781E0;-4.161964655E-1
1.915172476E1;-6.649848461E0;-2.425874233E0;1.969794273E0
1.916172468E1;-6.486301422E0;-1.505206585E0;1.620077848E0
1.917172460E1;-6.658707142E0;-9.013667107E-1;9.864906073E-1
1.918172260E1;-6.590023994E0;-9.685220718E-1;9.042389989E-1
1.919172260E1;-7.393113613E0;1.996969223E0;-3.004097342E-1
1.920172260E1;-8.495300293E0;3.379536629E0;-5.512491465E-1
1.921172254E1;-9.785856247E0;6.269042969E0;8.461900949E-1
1.922127660E1;-9.775476456E0;6.257877350E0;5.514630675E-1
1.923043307E1;-9.770889282E0;6.266475201E0;1.917646527E-1
1.924645607E1;-9.909753799E0;6.630393505E0;1.465480089E0
1.925646007E1;-1.000348473E1;7.287674904E0;2.590079784E0
1.926643907E1;-9.533332825E0;8.856964111E0;4.209574699E0
1.927643857E1;-8.761299133E0;9.444885254E0;4.801804543E0
1.928643857E1;-7.753782272E0;1.000735950E1;4.997954369E0
1.929643832E1;-7.156948090E0;1.100906754E1;4.228504181E0
1.930643812E1;-6.277800560E0;1.259603119E1;2.984174252E0
1.931643812E1;-5.676992416E0;1.299126911E1;2.401539564E0
1.932643812E1;-4.554781437E0;1.315040970E1;1.961405039E0
1.933643800E1;-2.630275249E0;1.297195625E1;1.406382561E0
1.934643788E1;-9.781837463E-2;1.129616547E1;3.904681206E-1
1.935643778E1;-1.468195915E-1;1.132079601E1;4.636981487E-1
1.936643778E1;-7.774829865E-2;1.016787529E1;-6.449604034E-2
1.937643770E1;-8.023991585E-1;9.206448555E0;-6.384563446E-1
1.938643762E1;-3.327870846E0;7.178349972E0;-1.259404421E0
1.939643570E1;-3.281710625E0;7.101969242E0;-1.117713928E0
1.940643570E1;-4.018455505E0;6.003436089E0;-8.933177590E-1
1.941643570E1;-5.078709126E0;4.417722225E0;-6.767132282E-1
1.942643564E1;-5.555225372E0;3.366767406E0;-3.810404539E-1
1.943598980E1;-5.491794586E0;3.287083149E0;-2.051975727E-1
1.944514628E1;-5.422076702E0;3.205586910E0;-9.005725384E-3
1.946117328E1;-6.930423737E0;1.084324360E0;-6.886076927E-2
1.947117228E1;-7.853513718E0;5.630211830E-1;-2.922141552E-1
1.948117228E1;-8.894947052E0;1.395401955E-1;-1.464437842E-1
1.949117228E1;-9.298041344E0;-8.271598816E-2;3.478080407E-2
1.950117261E1;-9.952602386E0;-5.138835907E-1;2.314011157E-1
1.951117286E1;-1.089673424E1;-9.370608330E-1;6.143301725E-1
1.952117286E1;-1.159958076E1;-1.145299435E0;1.005177736E0
1.953117302E1;-1.304342651E1;-1.392151833E0;1.232161045E0
1.954117317E1;-1.418981934E1;-1.524164200E0;1.131889224E0
1.955117317E1;-1.517239189E1;-2.210826874E0;5.616956949E-1
1.956117317E1;-1.724847412E1;-3.482489109E0;-4.939851761E-1
1.957117317E1;-1.713726807E1;-3.399273396E0;3.980636597E-3
1.958117326E1;-1.803903961E1;-3.694503307E0;-2.857027054E-1
1.959117334E1;-1.963387108E1;-3.505180359E0;-1.248812914E0
1.960117334E1;-1.870226097E1;-5.293274879E0;-1.593526840E0
1.961117148E1;-1.848271561E1;-4.780111790E0;-6.358470917E-1
1.962117155E1;-1.742892838E1;-5.193543434E0;9.397363663E-2
1.963117155E1;-1.573942661E1;-5.849586010E0;1.459661484E0
1.964117155E1;-9.380550385E0;-8.795942307E0;4.512129784E0
1.965072566E1;-9.534179688E0;-8.465015411E0;4.693084240E0
1.965988218E1;-9.820569992E0;-8.109209061E0;4.770284653E0
1.967590918E1;-6.586003780E0;-1.008233070E1;5.646562576E0
1.968590818E1;-2.230461359E0;-1.254051971E1;6.656631947E0
1.969590818E1;6.649146557E0;-1.615717697E1;8.306875229E0
1.970590868E1;1.083334732E1;-1.774792099E1;9.715895653E0
1.971590868E1;1.726151085E1;-1.843864632E1;1.083382320E1
1.972590868E1;2.563414764E1;-1.814140129E1;9.085283279E0
1.973590868E1;2.895843124E1;-1.645761490E1;7.171031952E0
1.974590868E1;3.285295868E1;-1.185692310E1;6.440387726E0
1.975590711E1;3.572092819E1;-8.210804939E0;8.179619789E0
1.976590711E1;3.939243317E1;-7.624059200E0;1.103478432E1
1.977590711E1;3.985073471E1;-6.650163651E0;1.117531204E1
1.978590721E1;3.971400452E1;-6.494653702E0;1.098197937E1
1.979590721E1;3.350138474E1;-6.484838486E0;8.295709610E0
1.980590721E1;2.422501945E1;-7.907856464E0;5.240148544E0
1.981590721E1;7.981978416E0;-9.411673546E0;1.214394569E0
1.982561964E1;7.963797569E0;-9.750143051E0;1.009630680E0
1.983481791E1;7.962708473E0;-1.008455944E1;8.054401875E-1
1.984419366E1;6.102413177E0;-9.739793777E0;7.982575893E-1
1.985360542E1;4.266754150E0;-9.377447128E0;9.079864025E-1
1.986304986E1;3.721005440E0;-9.093682289E0;-1.800034046E-1
1.987210118E1;3.770484924E0;-9.307704926E0;-2.522363663E-1
1.988079993E1;3.835735321E0;-9.501034737E0;-2.792658806E-1
1.989682493E1;3.110292435E0;-8.787562370E0;-1.069352388E0
1.990682493E1;2.251057625E0;-8.076442719E0;-2.075779438E0
1.991682493E1;8.717508316E-1;-7.078929424E0;-3.903583050E0
1.992682543E1;1.584148407E-1;-6.260913849E0;-4.675330162E0
1.993682576E1;-5.684771538E-1;-5.368013382E0;-5.152277946E0
1.994682576E1;-1.744924068E0;-4.351415157E0;-5.533926964E0
1.995682596E1;-4.904030323E0;-2.421502113E0;-5.930291653E0
1.996682613E1;-5.912039757E0;-1.657143593E0;-6.517451763E0
1.997682613E1;-7.014953613E0;-8.143608570E-1;-7.379861832E0
1.998682613E1;-7.489608765E0;-4.277224541E-1;-8.850841522E0
1.999682613E1;-6.622394085E0;3.986101151E-1;-1.024294186E1
2.000682623E1;-6.601671696E0;4.012055397E-1;-1.018464851E1
2.001682632E1;-5.022546768E0;4.509315491E-1;-9.765321732E0
2.002682632E1;-4.468514442E0;1.041804314E0;-9.283340454E0
2.003682639E1;-4.027963638E0;2.241157532E0;-7.990968227E0
2.004682461E1;-4.070453644E0;2.226780415E0;-8.125719070E0
2.005682461E1;-4.238358974E0;2.972763538E0;-7.882038116E0
2.006682380E1;-4.349199772E0;3.456589222E0;-6.962440491E0
2.007682380E1;-3.970233917E0;3.681873322E0;-5.102941513E0
2.008637791E1;-3.977490425E0;3.642147064E0;-5.195950985E0
2.009553448E1;-3.973530769E0;3.598777771E0;-5.263743401E0
2.011155948E1;-4.035780430E0;3.778343201E0;-4.777720451E0
2.012155948E1;-4.396388054E0;4.224554062E0;-4.531199455E0
2.013156048E1;-4.990433693E0;4.712510586E0;-4.749667168E0
2.014156098E1;-5.393302917E0;5.099213123E0;-5.165114403E0
2.015156098E1;-5.716279030E0;5.557684898E0;-5.991599083E0
2.016156098E1;-5.474920750E0;5.354779243E0;-6.634622574E0
2.017156098E1;-5.220119476E0;4.498085022E0;-7.839501381E0
2.018156115E1;-5.357105255E0;4.474129677E0;-7.961864948E0
2.019156115E1;-5.907628536E0;4.445319653E0;-8.133396149E0
2.020156115E1;-7.225920677E0;4.647038460E0;-7.711833477E0
2.021156126E1;-9.478048325E0;4.161123276E0;-6.985769749E0
2.022156186E1;-9.290018082E0;4.017169476E0;-6.791095257E0
2.023156186E1;-1.039769936E1;2.915590286E0;-6.656274319E0
2.024156186E1;-1.178717041E1;1.481365681E0;-6.302860260E0
2.025156194E1;-1.546967983E1;-8.105678558E-1;-5.795168877E0
2.026156008E1;-1.535562134E1;-8.875927925E-1;-5.697074413E0
2.027156008E1;-1.703517151E1;-2.176796913E0;-5.542732239E0
2.028156008E1;-1.853540993E1;-3.801867008E0;-5.254428864E0
2.029156014E1;-1.845647621E1;-6.772271156E0;-2.635141373E0
2.030111430E1;-1.846515656E1;-6.755342960E0;-2.626501560E0
2.031027088E1;-1.854903030E1;-6.681102753E0;-2.663885593E0
2.032629588E1;-1.715081406E1;-7.382604122E0;-1.478755474E0
2.033631188E1;-1.223161793E1;-7.902997494E0;7.880120277E-1
2.034627688E1;-3.888765335E0;-8.135017395E0;2.358809233E0
2.035626938E1;2.208488941E0;-7.610084534E0;3.130496979E0
2.036626405E1;1.101833248E1;-6.883885384E0;5.094214439E0
2.037626005E1;1.897500038E1;-4.747608662E0;7.519564629E0
2.038625685E1;2.763901138E1;1.249893665E0;1.099146461E1
2.039625435E1;3.032722282E1;2.923041344E0;1.184495163E1
2.040625220E1;3.339023972E1;4.460155964E0;1.217603874E1
2.041625020E1;3.702428818E1;3.895619154E0;1.004260635E1
2.042624854E1;3.020174789E1;3.387126207E0;3.657269239E0
2.043624704E1;3.021842575E1;3.358698368E0;3.671474934E0
2.044624558E1;2.076052666E1;3.676227093E0;1.057250023E0
2.045624425E1;1.136090088E1;2.002487659E0;2.818615437E-1
2.046624302E1;-9.372663498E-1;1.337943077E-1;3.835862398E0
2.047624009E1;-7.822761536E-1;-6.159143448E-1;3.096706390E0
2.048623902E1;-2.822663784E0;-1.141425610E0;4.162015915E0
2.049623802E1;-5.678414345E0;-1.405252934E0;5.914729118E0
2.050623714E1;-7.452006340E0;-1.030591965E0;5.388926029E0
2.051590153E1;-7.255940437E0;-1.343789101E0;5.150722027E0
2.052516253E1;-7.167262077E0;-1.468377590E0;5.082512856E0
2.053466173E1;-7.219934464E0;-1.298388958E0;4.464809418E0
2.054466173E1;-7.356422901E0;-6.826725006E-1;2.677641630E0
2.055466173E1;-7.233500004E0;8.970308304E-2;9.739174843E-1
2.056466223E1;-7.234565258E0;5.657730103E-1;3.828238845E-1
2.057466223E1;-7.362730026E0;1.596225262E0;-2.181115150E-1
2.058466223E1;-7.185222626E0;2.655344009E0;-3.316239119E-1
2.059466243E1;-6.695088863E0;3.749215603E0;-3.373036385E-1
2.060466243E1;-6.562639236E0;4.114216805E0;-3.891098499E-1
2.061466243E1;-6.576881409E0;4.831735134E0;-4.179103374E-1
2.062466243E1;-6.773817539E0;5.413535118E0;-1.145832539E-1
