Time (s),Acceleration x (m/s^2),Acceleration y (m/s^2),Acceleration z (m/s^2)
0,"-2,298433632E-1","4,098873138E0","7,948749542E0"
1,"2,298433632E-1","1,953668594E0","1,193270111E1"
2,"3,830722570E-1","4,213795066E-1","9,538499832E0"
3,"1,149216771E0","3,639186621E0","1,034295177E1"
4,"-7,661445439E-2","3,945644379E0","9,069235802E0"
5,"-8,427590132E-1","3,792415380E0","9,385271072E0"
6,"3,830722570E-1","4,252102375E0","8,743624687E0"
7,"-2,068590164E0","4,098873138E0","9,069235802E0"
8,"-3,141192675E0","4,558559895E0","8,111555099E0"
9,"-5,363011956E-1","3,332728863E0","9,069235802E0"
10,"7,661445439E-2","5,018246651E0","9,069235802E0"
11,"1,149216771E0","7,278373241E-1","1,479616642E1"
12,"-6,895300746E-1","1,647210717E0","6,837840080E0"
13,"-3,907337189E0","-4,635174274E0","8,427590370E0"
14,"-2,528276920E0","5,746083856E-1","9,701305389E0"
15,"-2,375048161E0","4,213795066E-1","9,864110947E0"
16,"-3,141192675E0","2,106897593E0","7,316680431E0"
17,"-4,060565948E0","3,792415380E0","6,358999729E0"
18,"-4,520252705E0","3,179499865E0","6,042964935E0"
19,"-2,221819162E0","-5,248090267E0","1,049618053E1"
20,"-2,987963676E0","-1,076433086E1","-4,932055473E0"
21,"-9,270348549E0","-4,481945515E0","-7,948749542E0"
22,"-9,576807022E0","-4,979939461E-1","-3,332728863E0"
23,"-7,738059998E0","-1,723825216E0","-1,905784607E0"
24,"-8,963891029E0","-3,830722719E-2","-6,042964935E0"
25,"-7,125144482E0","7,278373241E-1","-4,453215122E0"
26,"-5,899312973E0","4,865017891E0","-5,401319027E0"
27,"-7,891288757E0","3,485957623E0","-6,042964935E0"
28,"-9,270348549E0","1,034295082E0","-4,769249916E0"
29,"-9,117119789E0","2,681505978E-1","-5,564124584E0"
30,"-5,133168221E0","2,681505978E-1","-2,221819162E0"
31,"-6,358999729E0","-1,110909581E0","6,358999729E0"
32,"-3,830722570E-1","5,477933407E0","7,000645638E0"
33,"5,363011956E-1","1,800439715E0","1,049618053E1"
34,"-2,068590164E0","1,493981838E0","8,743624687E0"
35,"-1,302445769E0","4,711789131E0","7,948749542E0"
36,"-2,298433632E-1","7,316680431E0","7,469909191E0"
37,"6,895300746E-1","5,171475887E0","7,000645638E0"
38,"7,661445439E-2","2,566584110E0","3,974374771E0"
39,"-3,754108191E0","3,639186621E0","7,000645638E0"
40,"-1,762132406E0","4,252102375E0","5,401319027E0"
41,"-1,915361404E0","3,639186621E0","8,427590370E0"
42,"8,427590132E-1","6,090848923E0","7,153874874E0"
43,"-8,427590132E-1","5,018246651E0","7,795520782E0"
44,"-1,149216771E0","3,639186621E0","8,111555099E0"
45,"-6,895300746E-1","5,631162167E0","9,069235802E0"
46,"-7,661445439E-2","5,784391403E0","8,274360657E0"
47,"-7,661445439E-2","5,477933407E0","8,111555099E0"
48,"-5,363011956E-1","3,179499865E0","9,222464561E0"
49,"-1,762132406E0","4,405331135E0","7,795520782E0"
50,"3,830722570E-1","5,324704647E0","8,274360657E0"
51,"-3,830722570E-1","5,784391403E0","7,153874874E0"
52,"-1,302445769E0","4,558559895E0","1,463336086E1"
53,"-3,830722570E-1","5,631162167E0","9,538499832E0"
54,"-6,895300746E-1","3,945644379E0","9,701305389E0"
55,"-8,427590132E-1","3,026270866E0","1,018014526E1"
56,"-3,830722570E-1","3,639186621E0","7,153874874E0"
57,"-3,141192675E0","-2,030282974E0","9,701305389E0"
58,"-4,213795185E0","-1,723825216E0","7,948749542E0"
59,"-1,302445769E0","3,792415380E0","7,153874874E0"
60,"-2,221819162E0","3,639186621E0","8,427590370E0"
61,"-2,681505919E0","3,945644379E0","8,743624687E0"
62,"-1,608903527E0","3,945644379E0","8,274360657E0"
63,"-8,427590132E-1","3,945644379E0","7,795520782E0"
64,"-7,661445439E-2","5,631162167E0","8,274360657E0"
65,"-7,661445439E-2","5,477933407E0","7,948749542E0"
66,"-6,895300746E-1","5,018246651E0","8,274360657E0"
67,"3,830722570E-1","5,171475887E0","8,906430244E0"
68,"2,298433632E-1","5,631162167E0","7,948749542E0"
69,"-6,895300746E-1","5,171475887E0","7,795520782E0"
70,"3,830722570E-1","5,324704647E0","8,274360657E0"
71,"-7,661445439E-2","5,171475887E0","8,427590370E0"
72,"-7,661445439E-2","5,477933407E0","8,111555099E0"
73,"7,661445439E-2","5,171475887E0","8,111555099E0"
74,"-7,661445439E-2","5,018246651E0","8,427590370E0"
75,"-3,447650433E0","2,260126352E0","9,069235802E0"
76,"1,149216771E0","1,953668594E0","6,837840080E0"
77,"-1,915361404E0","3,945644379E0","9,385271072E0"
78,"9,959878922E-1","3,485957623E0","9,701305389E0"
79,"5,363011956E-1","5,477933407E0","7,469909191E0"
80,"3,830722570E-1","4,865017891E0","8,111555099E0"
81,"-5,363011956E-1","5,171475887E0","1,081221485E1"
82,"-2,987963676E0","2,873042107E0","1,113782597E1"
83,"-1,455674648E0","2,873042107E0","9,864110947E0"
84,"-6,895300746E-1","4,558559895E0","9,069235802E0"
85,"-7,661445439E-2","4,558559895E0","8,111555099E0"
86,"3,830722570E-1","5,018246651E0","7,316680431E0"
87,"-7,661445439E-2","5,171475887E0","7,469909191E0"
88,"5,363011956E-1","6,090848923E0","5,726930618E0"
89,"-2,221819162E0","3,332728863E0","1,049618053E1"
90,"-3,294421434E0","2,566584110E0","1,081221485E1"
91,"-2,221819162E0","2,566584110E0","7,632715225E0"
92,"-1,302445769E0","4,711789131E0","7,948749542E0"
93,"-1,149216771E0","5,324704647E0","6,837840080E0"
94,"2,298433632E-1","3,792415380E0","8,906430244E0"
95,"-2,528276920E0","3,026270866E0","9,538499832E0"
96,"-9,959878922E-1","1,800439715E0","1,001733971E1"
97,"-2,298433632E-1","1,493981838E0","9,069235802E0"
98,"-9,959878922E-1","2,719813108E0","1,081221485E1"
99,"-2,375048161E0","3,485957623E0","8,906430244E0"
100,"-7,661445439E-2","4,405331135E0","7,948749542E0"
101,"-2,298433632E-1","4,865017891E0","8,274360657E0"
102,"5,363011956E-1","3,792415380E0","9,385271072E0"
103,"-7,661445439E-2","4,098873138E0","7,795520782E0"
104,"3,830722570E-1","4,558559895E0","8,743624687E0"
105,"-5,363011956E-1","3,945644379E0","8,743624687E0"
106,"-1,915361404E0","3,485957623E0","9,701305389E0"
107,"-2,298433632E-1","4,405331135E0","8,590395927E0"
108,"-9,959878922E-1","4,098873138E0","8,743624687E0"
109,"-7,661445439E-2","4,098873138E0","8,427590370E0"
110,"1,455674648E0","3,792415380E0","9,069235802E0"
111,"-2,068590164E0","4,405331135E0","9,385271072E0"
112,"-2,298433632E-1","5,631162167E0","8,111555099E0"
113,"5,363011956E-1","5,018246651E0","8,111555099E0"
114,"9,959878922E-1","2,106897593E0","8,427590370E0"
115,"-6,895300746E-1","3,179499865E0","9,385271072E0"
116,"-1,149216771E0","3,179499865E0","8,111555099E0"
117,"-3,447650433E0","2,873042107E0","1,034295177E1"
118,"-1,455674648E0","3,945644379E0","8,743624687E0"
119,"-7,661445439E-2","2,413355350E0","8,274360657E0"
120,"-7,661445439E-2","2,873042107E0","9,538499832E0"
121,"-3,830722570E-1","3,792415380E0","8,274360657E0"
122,"-1,608903527E0","4,252102375E0","9,538499832E0"
123,"-8,427590132E-1","3,945644379E0","6,675034523E0"
124,"7,661445439E-2","3,179499865E0","8,743624687E0"
125,"5,363011956E-1","3,026270866E0","1,001733971E1"
126,"3,830722570E-1","3,639186621E0","9,864110947E0"
127,"-1,608903527E0","1,800439715E0","1,097502041E1"
128,"-8,427590132E-1","1,800439715E0","7,795520782E0"
129,"-5,363011956E-1","2,566584110E0","7,795520782E0"
130,"-2,298433632E-1","1,800439715E0","1,049618053E1"
131,"-6,895300746E-1","2,106897593E0","8,743624687E0"
132,"-1,608903527E0","1,340752959E0","9,222464561E0"
133,"-2,528276920E0","1,340752959E0","1,081221485E1"
134,"-1,455674648E0","2,873042107E0","1,081221485E1"
135,"-9,959878922E-1","3,026270866E0","7,153874874E0"
136,"7,661445439E-2","2,106897593E0","1,001733971E1"
137,"-1,608903527E0","2,106897593E0","1,097502041E1"
138,"-2,068590164E0","2,566584110E0","9,538499832E0"
139,"-1,762132406E0","2,719813108E0","9,538499832E0"
140,"-3,830722570E-1","1,953668594E0","8,906430244E0"
141,"2,298433632E-1","2,413355350E0","9,701305389E0"
142,"-8,427590132E-1","2,413355350E0","7,469909191E0"
143,"-1,762132406E0","4,405331135E0","8,906430244E0"
144,"1,608903527E0","2,719813108E0","1,001733971E1"
145,"2,298433632E-1","2,413355350E0","9,385271072E0"
146,"-7,661445439E-2","2,106897593E0","1,097502041E1"
147,"-1,149216771E0","2,719813108E0","9,222464561E0"
148,"-8,427590132E-1","3,945644379E0","7,795520782E0"
149,"2,298433632E-1","2,413355350E0","8,743624687E0"
150,"5,363011956E-1","2,873042107E0","9,701305389E0"
151,"-7,661445439E-2","3,485957623E0","1,001733971E1"
152,"-1,762132406E0","3,179499865E0","1,001733971E1"
153,"-2,298433632E-1","3,332728863E0","8,906430244E0"
154,"1,149216771E0","3,179499865E0","9,385271072E0"
155,"-1,302445769E0","2,260126352E0","8,743624687E0"
156,"-2,298433632E-1","2,719813108E0","8,427590370E0"
157,"5,363011956E-1","1,647210717E0","8,906430244E0"
158,"-9,959878922E-1","2,566584110E0","1,018014526E1"
159,"-9,959878922E-1","2,260126352E0","1,034295177E1"
160,"2,298433632E-1","1,953668594E0","9,069235802E0"
161,"-3,830722570E-1","2,260126352E0","9,222464561E0"
162,"-2,068590164E0","1,800439715E0","8,743624687E0"
163,"7,661445439E-2","1,647210717E0","1,081221485E1"
164,"9,959878922E-1","1,953668594E0","1,018014526E1"
165,"-1,608903527E0","2,106897593E0","9,538499832E0"
166,"-1,302445769E0","2,719813108E0","8,427590370E0"
167,"7,661445439E-2","8,810662031E-1","1,272757626E1"
168,"-7,661445439E-2","2,260126352E0","9,538499832E0"
169,"-1,762132406E0","2,260126352E0","9,701305389E0"
170,"-6,895300746E-1","1,493981838E0","1,193270111E1"
171,"6,895300746E-1","2,413355350E0","1,049618053E1"
172,"5,363011956E-1","2,566584110E0","9,069235802E0"
173,"-1,608903527E0","2,106897593E0","8,906430244E0"
174,"-1,302445769E0","3,332728863E0","9,701305389E0"
175,"3,830722570E-1","2,106897593E0","9,222464561E0"
176,"9,959878922E-1","1,953668594E0","1,034295177E1"
177,"-6,895300746E-1","2,566584110E0","8,274360657E0"
178,"-5,363011956E-1","3,792415380E0","6,521805286E0"
179,"8,427590132E-1","2,719813108E0","7,795520782E0"
180,"8,427590132E-1","2,260126352E0","8,906430244E0"
181,"-7,661445439E-2","2,873042107E0","7,632715225E0"
182,"-1,915361404E0","2,719813108E0","9,864110947E0"
183,"-6,895300746E-1","3,179499865E0","9,864110947E0"
184,"6,895300746E-1","4,098873138E0","8,274360657E0"
185,"-7,661445439E-2","3,639186621E0","1,081221485E1"
186,"-1,762132406E0","3,485957623E0","9,222464561E0"
187,"-6,895300746E-1","2,873042107E0","1,065898609E1"
188,"3,830722570E-1","2,413355350E0","9,069235802E0"
189,"1,149216771E0","3,179499865E0","1,018014526E1"
190,"-7,661445439E-2","2,566584110E0","9,538499832E0"
191,"-1,455674648E0","3,026270866E0","9,222464561E0"
192,"-6,895300746E-1","3,179499865E0","7,153874874E0"
193,"-1,302445769E0","3,792415380E0","1,034295177E1"
194,"-9,959878922E-1","3,332728863E0","9,222464561E0"
195,"5,363011956E-1","3,026270866E0","7,153874874E0"
196,"3,830722570E-1","3,026270866E0","8,427590370E0"
197,"1,762132406E0","4,865017891E0","8,906430244E0"
198,"1,302445769E0","3,026270866E0","9,538499832E0"
199,"-1,302445769E0","3,639186621E0","1,081221485E1"
200,"-7,661445439E-2","3,179499865E0","1,527500725E1"
201,"-7,661445439E-2","3,332728863E0","1,049618053E1"
202,"6,895300746E-1","3,026270866E0","1,001733971E1"
203,"-7,661445439E-2","2,873042107E0","6,205770969E0"
204,"-2,298433632E-1","2,413355350E0","9,069235802E0"
205,"-7,661445439E-2","2,413355350E0","1,113782597E1"
206,"-2,375048161E0","3,179499865E0","1,256477070E1"
207,"-1,762132406E0","1,800439715E0","1,001733971E1"
208,"7,661445439E-2","1,647210717E0","6,205770969E0"
209,"-7,661445439E-2","1,647210717E0","8,427590370E0"
210,"5,363011956E-1","1,034295082E0","1,081221485E1"
211,"-2,068590164E0","2,681505978E-1","9,222464561E0"
212,"-1,302445769E0","1,149216816E-1","1,065898609E1"
213,"-7,661445439E-2","4,213795066E-1","8,274360657E0"
214,"-7,661445439E-2","3,026270866E0","6,837840080E0"
215,"5,363011956E-1","5,018246651E0","8,590395927E0"
216,"-8,427590132E-1","5,171475887E0","7,316680431E0"
217,"-3,830722570E-1","5,018246651E0","7,000645638E0"
218,"7,661445439E-2","4,865017891E0","4,769249916E0"
219,"-9,959878922E-1","2,719813108E0","7,795520782E0"
220,"5,363011956E-1","4,865017891E0","7,632715225E0"
221,"-5,363011956E-1","3,639186621E0","9,222464561E0"
222,"7,661445439E-2","4,711789131E0","7,316680431E0"
223,"3,830722570E-1","4,098873138E0","8,590395927E0"
224,"6,895300746E-1","3,332728863E0","1,081221485E1"
225,"3,830722570E-1","5,018246651E0","8,427590370E0"
226,"-8,427590132E-1","4,711789131E0","6,358999729E0"
227,"5,363011956E-1","3,639186621E0","1,129105568E1"
228,"2,298433632E-1","3,945644379E0","8,906430244E0"
229,"-1,608903527E0","3,332728863E0","7,948749542E0"
230,"-7,661445439E-2","3,945644379E0","9,701305389E0"
231,"9,959878922E-1","3,639186621E0","8,111555099E0"
232,"-8,427590132E-1","3,026270866E0","7,795520782E0"
233,"2,298433632E-1","3,179499865E0","8,274360657E0"
234,"1,302445769E0","3,179499865E0","9,069235802E0"
235,"-8,427590132E-1","2,719813108E0","9,069235802E0"
236,"1,149216771E0","2,260126352E0","8,906430244E0"
237,"-3,830722570E-1","2,873042107E0","1,208592987E1"
238,"-9,959878922E-1","2,873042107E0","1,034295177E1"
239,"1,608903527E0","2,873042107E0","8,590395927E0"
240,"3,830722570E-1","2,566584110E0","1,304361057E1"
241,"-8,427590132E-1","3,026270866E0","8,427590370E0"
242,"3,830722570E-1","3,026270866E0","1,001733971E1"
243,"3,830722570E-1","2,413355350E0","1,208592987E1"
244,"-7,661445439E-2","4,865017891E0","8,590395927E0"
245,"-1,149216771E0","3,792415380E0","8,427590370E0"
246,"7,661445439E-2","3,792415380E0","9,864110947E0"
247,"8,427590132E-1","2,719813108E0","1,001733971E1"
248,"1,149216771E0","2,719813108E0","1,034295177E1"
249,"-3,830722570E-1","3,792415380E0","1,034295177E1"
250,"-1,302445769E0","2,873042107E0","7,632715225E0"
251,"-8,427590132E-1","2,566584110E0","8,427590370E0"
252,"-1,302445769E0","2,719813108E0","9,222464561E0"
253,"5,363011956E-1","3,332728863E0","8,427590370E0"
254,"9,959878922E-1","3,179499865E0","9,538499832E0"
255,"1,302445769E0","4,098873138E0","8,906430244E0"
256,"9,959878922E-1","3,485957623E0","1,049618053E1"
257,"5,363011956E-1","3,485957623E0","7,795520782E0"
258,"3,830722570E-1","3,026270866E0","8,743624687E0"
259,"-6,895300746E-1","2,719813108E0","8,111555099E0"
260,"-6,895300746E-1","3,026270866E0","8,590395927E0"
261,"-1,455674648E0","3,485957623E0","8,590395927E0"
262,"-1,455674648E0","3,026270866E0","8,906430244E0"
263,"-1,149216771E0","2,719813108E0","8,743624687E0"
264,"-8,427590132E-1","3,179499865E0","9,385271072E0"
265,"1,302445769E0","2,566584110E0","8,906430244E0"
266,"2,298433632E-1","2,413355350E0","1,001733971E1"
267,"3,830722570E-1","2,413355350E0","9,701305389E0"
268,"8,427590132E-1","2,566584110E0","9,222464561E0"
269,"8,427590132E-1","3,179499865E0","9,222464561E0"
270,"5,363011956E-1","2,566584110E0","8,111555099E0"
271,"9,959878922E-1","3,485957623E0","7,948749542E0"
272,"9,959878922E-1","2,719813108E0","9,864110947E0"
273,"6,895300746E-1","2,566584110E0","1,001733971E1"
274,"-7,661445439E-2","2,719813108E0","9,538499832E0"
275,"7,661445439E-2","2,719813108E0","9,538499832E0"
276,"5,363011956E-1","2,413355350E0","7,316680431E0"
277,"-7,661445439E-2","1,953668594E0","1,383848572E1"
278,"1,149216771E0","2,260126352E0","8,590395927E0"
279,"5,363011956E-1","3,639186621E0","8,111555099E0"
280,"1,455674648E0","3,179499865E0","8,743624687E0"
281,"-5,363011956E-1","2,260126352E0","1,113782597E1"
282,"9,959878922E-1","3,179499865E0","8,590395927E0"
283,"7,661445439E-2","2,260126352E0","1,193270111E1"
284,"-1,149216771E0","2,873042107E0","9,385271072E0"
285,"-2,375048161E0","2,566584110E0","1,160709000E1"
286,"-9,959878922E-1","3,179499865E0","8,427590370E0"
287,"-7,661445439E-2","2,413355350E0","7,948749542E0"
288,"2,221819162E0","3,026270866E0","6,521805286E0"
289,"5,363011956E-1","2,413355350E0","1,272757626E1"
290,"6,895300746E-1","3,332728863E0","8,274360657E0"
291,"-7,661445439E-2","3,332728863E0","6,205770969E0"
292,"-5,363011956E-1","6,856993675E0","3,974374771E0"
293,"-7,661445439E-2","4,558559895E0","6,521805286E0"
294,"6,895300746E-1","3,026270866E0","8,590395927E0"
295,"9,959878922E-1","3,485957623E0","1,018014526E1"
296,"2,068590164E0","4,711789131E0","8,274360657E0"
297,"7,661445439E-2","2,413355350E0","1,097502041E1"
298,"-6,895300746E-1","4,558559895E0","7,153874874E0"
299,"-1,302445769E0","4,865017891E0","8,427590370E0"
300,"-8,427590132E-1","6,244078159E0","1,018014526E1"
301,"3,830722570E-1","5,784391403E0","7,795520782E0"
302,"9,959878922E-1","5,631162167E0","6,837840080E0"
303,"1,149216771E0","5,477933407E0","6,837840080E0"
304,"5,363011956E-1","5,171475887E0","9,538499832E0"
305,"8,427590132E-1","6,550535679E0","7,795520782E0"
306,"1,455674648E0","4,865017891E0","8,906430244E0"
307,"1,455674648E0","4,558559895E0","7,000645638E0"
308,"1,762132406E0","3,945644379E0","1,160709000E1"
309,"2,221819162E0","5,171475887E0","7,795520782E0"
310,"6,895300746E-1","4,865017891E0","9,701305389E0"
311,"8,427590132E-1","4,558559895E0","9,385271072E0"
312,"-9,959878922E-1","5,937620163E0","7,000645638E0"
313,"-3,830722570E-1","6,090848923E0","7,153874874E0"
314,"-2,298433632E-1","6,856993675E0","7,000645638E0"
315,"-5,363011956E-1","7,776367188E0","7,000645638E0"
316,"7,661445439E-2","7,316680431E0","7,153874874E0"
317,"3,830722570E-1","5,477933407E0","9,069235802E0"
318,"1,455674648E0","4,865017891E0","7,948749542E0"
319,"7,661445439E-2","4,711789131E0","1,081221485E1"
320,"2,375048161E0","3,485957623E0","7,316680431E0"
321,"3,830722570E-1","4,558559895E0","7,000645638E0"
322,"1,149216771E0","5,324704647E0","8,274360657E0"
323,"5,363011956E-1","3,639186621E0","7,153874874E0"
324,"-2,681505919E0","4,865017891E0","1,463336086E1"
325,"-9,959878922E-1","1,647210717E0","3,974374771E0"
326,"-7,661445439E-2","1,034295082E0","8,274360657E0"
327,"-6,895300746E-1","1,340752959E0","7,153874874E0"
328,"-2,298433632E-1","1,340752959E0","1,160709000E1"
329,"-7,661445439E-2","3,026270866E0","1,081221485E1"
330,"3,830722570E-1","5,171475887E0","1,065898609E1"
331,"8,427590132E-1","2,719813108E0","7,316680431E0"
332,"-6,895300746E-1","1,340752959E0","8,590395927E0"
333,"-5,363011956E-1","1,953668594E0","7,948749542E0"
334,"-2,298433632E-1","2,413355350E0","9,222464561E0"
335,"2,298433632E-1","1,340752959E0","1,176989555E1"
336,"9,959878922E-1","1,800439715E0","1,081221485E1"
337,"-1,455674648E0","2,106897593E0","9,222464561E0"
338,"-6,895300746E-1","1,493981838E0","9,538499832E0"
339,"2,298433632E-1","2,106897593E0","9,385271072E0"
340,"2,298433632E-1","1,493981838E0","8,274360657E0"
341,"1,302445769E0","1,800439715E0","9,069235802E0"
342,"-2,528276920E0","2,260126352E0","1,065898609E1"
343,"-2,298433632E-1","3,639186621E0","9,069235802E0"
344,"9,959878922E-1","5,018246651E0","8,111555099E0"
345,"1,608903527E0","3,026270866E0","7,795520782E0"
346,"7,661445439E-2","2,566584110E0","9,701305389E0"
347,"-2,681505919E0","3,945644379E0","1,049618053E1"
348,"3,830722570E-1","4,098873138E0","9,701305389E0"
349,"5,363011956E-1","5,018246651E0","9,864110947E0"
350,"7,661445439E-2","4,098873138E0","9,385271072E0"
351,"-9,959878922E-1","3,332728863E0","8,906430244E0"
352,"-6,895300746E-1","3,179499865E0","7,469909191E0"
353,"3,830722570E-1","3,639186621E0","7,000645638E0"
354,"3,830722570E-1","3,026270866E0","9,385271072E0"
355,"5,363011956E-1","2,719813108E0","1,001733971E1"
356,"-5,363011956E-1","2,873042107E0","7,948749542E0"
357,"3,830722570E-1","5,018246651E0","7,795520782E0"
358,"9,959878922E-1","3,485957623E0","7,948749542E0"
359,"6,895300746E-1","3,485957623E0","8,427590370E0"
360,"-1,149216771E0","2,873042107E0","1,034295177E1"
361,"-3,830722570E-1","2,719813108E0","7,316680431E0"
362,"1,149216771E0","2,566584110E0","8,427590370E0"
363,"6,895300746E-1","3,179499865E0","9,222464561E0"
364,"6,895300746E-1","6,703764915E0","7,795520782E0"
365,"7,661445439E-2","5,784391403E0","7,000645638E0"
366,"-8,427590132E-1","5,631162167E0","9,385271072E0"
367,"2,068590164E0","5,171475887E0","7,469909191E0"
368,"9,959878922E-1","6,397306919E0","6,675034523E0"
369,"-5,363011956E-1","3,792415380E0","1,049618053E1"
370,"-6,895300746E-1","4,558559895E0","7,000645638E0"
371,"8,427590132E-1","3,945644379E0","7,795520782E0"
372,"1,915361404E0","3,945644379E0","5,726930618E0"
373,"2,298433632E-1","4,558559895E0","9,385271072E0"
374,"-1,149216771E0","4,558559895E0","8,906430244E0"
375,"8,427590132E-1","5,784391403E0","7,795520782E0"
376,"1,915361404E0","6,550535679E0","7,000645638E0"
377,"8,427590132E-1","5,937620163E0","6,521805286E0"
378,"-3,830722570E-1","4,711789131E0","6,205770969E0"
379,"-7,661445439E-2","4,711789131E0","8,743624687E0"
380,"1,455674648E0","3,945644379E0","1,018014526E1"
381,"1,302445769E0","4,405331135E0","7,000645638E0"
382,"1,149216771E0","5,937620163E0","7,948749542E0"
383,"-1,302445769E0","5,324704647E0","8,906430244E0"
384,"-7,661445439E-2","5,784391403E0","8,743624687E0"
385,"1,302445769E0","3,945644379E0","6,675034523E0"
386,"9,959878922E-1","4,558559895E0","7,632715225E0"
387,"-5,363011956E-1","5,324704647E0","8,427590370E0"
388,"-1,149216771E0","5,631162167E0","7,153874874E0"
389,"-2,298433632E-1","5,477933407E0","8,906430244E0"
390,"8,427590132E-1","4,098873138E0","9,069235802E0"
391,"9,959878922E-1","4,711789131E0","8,906430244E0"
392,"-8,427590132E-1","4,558559895E0","9,069235802E0"
393,"-2,068590164E0","5,171475887E0","9,701305389E0"
394,"3,830722570E-1","5,937620163E0","8,590395927E0"
395,"9,959878922E-1","4,558559895E0","8,274360657E0"
396,"5,363011956E-1","5,324704647E0","9,069235802E0"
397,"4,060565948E0","5,324704647E0","1,145386124E1"
398,"3,141192675E0","4,865017891E0","8,743624687E0"
399,"1,762132406E0","5,477933407E0","5,248090267E0"
400,"2,681505919E0","5,784391403E0","7,632715225E0"
401,"5,439626217E0","3,792415380E0","8,274360657E0"
402,"3,447650433E0","5,477933407E0","9,701305389E0"
403,"3,907337189E0","4,558559895E0","9,701305389E0"
404,"2,987963676E0","4,865017891E0","8,274360657E0"
405,"1,149216771E0","5,631162167E0","6,837840080E0"
406,"3,830722570E-1","4,865017891E0","7,000645638E0"
407,"1,608903527E0","5,631162167E0","6,675034523E0"
408,"2,068590164E0","6,550535679E0","7,153874874E0"
409,"1,762132406E0","4,252102375E0","8,590395927E0"
410,"2,375048161E0","3,332728863E0","9,538499832E0"
411,"2,221819162E0","6,090848923E0","7,469909191E0"
412,"1,455674648E0","6,856993675E0","5,564124584E0"
413,"-2,298433632E-1","5,171475887E0","7,469909191E0"
414,"7,661445439E-2","4,405331135E0","8,590395927E0"
415,"3,830722570E-1","6,550535679E0","6,837840080E0"
416,"5,363011956E-1","6,856993675E0","7,469909191E0"
417,"8,427590132E-1","5,018246651E0","8,427590370E0"
418,"2,221819162E0","4,098873138E0","8,590395927E0"
419,"3,141192675E0","4,711789131E0","9,385271072E0"
420,"2,221819162E0","4,405331135E0","8,274360657E0"
421,"-2,298433632E-1","3,639186621E0","9,385271072E0"
422,"-3,830722570E-1","3,332728863E0","1,065898609E1"
423,"8,427590132E-1","3,332728863E0","8,590395927E0"
424,"1,302445769E0","3,179499865E0","5,726930618E0"
425,"1,149216771E0","2,719813108E0","1,160709000E1"
426,"1,915361404E0","3,179499865E0","1,018014526E1"
427,"5,363011956E-1","2,566584110E0","9,538499832E0"
428,"5,363011956E-1","3,332728863E0","8,906430244E0"
429,"1,149216771E0","3,945644379E0","9,701305389E0"
430,"2,068590164E0","2,566584110E0","8,743624687E0"
431,"2,221819162E0","3,179499865E0","9,222464561E0"
432,"9,959878922E-1","3,179499865E0","1,049618053E1"
433,"-7,661445439E-2","3,179499865E0","7,000645638E0"
434,"6,895300746E-1","4,558559895E0","8,427590370E0"
435,"1,455674648E0","4,711789131E0","7,153874874E0"
436,"2,375048161E0","3,792415380E0","8,743624687E0"
437,"2,681505919E0","3,792415380E0","7,948749542E0"
438,"3,830722570E-1","3,945644379E0","9,222464561E0"
439,"-1,149216771E0","4,252102375E0","7,795520782E0"
440,"8,427590132E-1","4,865017891E0","9,385271072E0"
441,"3,830722570E-1","3,792415380E0","9,385271072E0"
442,"1,455674648E0","3,945644379E0","7,469909191E0"
443,"2,375048161E0","4,098873138E0","7,153874874E0"
444,"6,895300746E-1","4,711789131E0","8,743624687E0"
445,"1,608903527E0","3,639186621E0","9,385271072E0"
446,"1,608903527E0","3,485957623E0","9,222464561E0"
447,"9,959878922E-1","4,252102375E0","1,001733971E1"
448,"1,302445769E0","4,558559895E0","7,948749542E0"
449,"1,762132406E0","3,792415380E0","9,701305389E0"
450,"7,661445439E-2","5,324704647E0","8,274360657E0"
451,"7,661445439E-2","5,171475887E0","6,837840080E0"
452,"-3,830722570E-1","6,244078159E0","8,427590370E0"
453,"6,895300746E-1","5,784391403E0","8,743624687E0"
454,"1,149216771E0","3,792415380E0","8,743624687E0"
455,"1,455674648E0","3,792415380E0","7,948749542E0"
456,"9,959878922E-1","6,244078159E0","5,085284233E0"
457,"1,149216771E0","3,792415380E0","1,018014526E1"
458,"1,762132406E0","4,405331135E0","7,632715225E0"
459,"6,895300746E-1","4,711789131E0","1,034295177E1"
460,"1,762132406E0","5,018246651E0","8,590395927E0"
461,"1,302445769E0","6,090848923E0","1,224873543E1"
462,"2,375048161E0","5,171475887E0","7,632715225E0"
463,"1,455674648E0","5,018246651E0","9,069235802E0"
464,"1,455674648E0","4,558559895E0","6,837840080E0"
465,"1,455674648E0","5,018246651E0","8,427590370E0"
466,"1,915361404E0","5,171475887E0","8,274360657E0"
467,"1,302445769E0","5,171475887E0","7,316680431E0"
468,"2,221819162E0","5,324704647E0","5,880159378E0"
469,"1,762132406E0","5,631162167E0","7,153874874E0"
470,"-7,661445439E-2","6,856993675E0","7,948749542E0"
471,"6,895300746E-1","6,090848923E0","6,521805286E0"
472,"8,427590132E-1","6,550535679E0","7,153874874E0"
473,"5,363011956E-1","6,703764915E0","7,153874874E0"
474,"5,363011956E-1","6,703764915E0","7,153874874E0"
475,"-7,661445439E-2","6,244078159E0","7,316680431E0"
476,"2,298433632E-1","6,550535679E0","7,469909191E0"
477,"5,363011956E-1","6,244078159E0","7,469909191E0"
478,"3,830722570E-1","6,397306919E0","7,632715225E0"
479,"6,895300746E-1","6,244078159E0","7,469909191E0"
480,"3,830722570E-1","6,397306919E0","7,469909191E0"
481,"3,830722570E-1","6,090848923E0","7,469909191E0"
482,"3,830722570E-1","6,090848923E0","7,795520782E0"
483,"7,661445439E-2","6,244078159E0","7,795520782E0"
484,"3,830722570E-1","5,937620163E0","7,632715225E0"
485,"2,298433632E-1","5,784391403E0","7,795520782E0"
486,"2,298433632E-1","6,244078159E0","7,469909191E0"
487,"2,298433632E-1","6,244078159E0","7,469909191E0"
488,"2,298433632E-1","6,244078159E0","7,316680431E0"
489,"5,363011956E-1","6,244078159E0","7,795520782E0"
490,"9,959878922E-1","6,090848923E0","7,153874874E0"
491,"-7,661445439E-2","5,477933407E0","9,701305389E0"
492,"-1,608903527E0","5,477933407E0","7,948749542E0"
493,"7,661445439E-2","5,324704647E0","7,469909191E0"
494,"1,302445769E0","3,945644379E0","9,701305389E0"
495,"-8,427590132E-1","5,171475887E0","1,018014526E1"
496,"1,762132406E0","5,171475887E0","7,316680431E0"
497,"-7,661445439E-2","3,945644379E0","8,590395927E0"
498,"7,661445439E-2","4,252102375E0","9,385271072E0"
499,"1,302445769E0","4,711789131E0","8,906430244E0"
500,"1,762132406E0","4,865017891E0","8,274360657E0"
501,"2,298433632E-1","4,098873138E0","8,590395927E0"
502,"-3,830722570E-1","3,485957623E0","9,385271072E0"
503,"-6,895300746E-1","3,792415380E0","7,632715225E0"
504,"-6,895300746E-1","3,332728863E0","9,385271072E0"
505,"3,830722570E-1","3,026270866E0","9,222464561E0"
506,"1,762132406E0","5,631162167E0","5,085284233E0"
507,"3,830722570E-1","4,098873138E0","8,743624687E0"
508,"1,455674648E0","5,631162167E0","7,000645638E0"
509,"3,830722570E-1","4,711789131E0","8,274360657E0"
510,"-3,830722570E-1","5,784391403E0","7,948749542E0"
511,"-6,895300746E-1","6,397306919E0","7,469909191E0"
512,"-1,915361404E0","5,171475887E0","8,906430244E0"
513,"-1,762132406E0","5,018246651E0","7,153874874E0"
514,"-1,302445769E0","5,171475887E0","6,837840080E0"
515,"-9,959878922E-1","5,018246651E0","8,427590370E0"
516,"-9,959878922E-1","5,631162167E0","6,837840080E0"
517,"-1,608903527E0","5,324704647E0","9,069235802E0"
518,"3,830722570E-1","4,405331135E0","8,274360657E0"
519,"5,363011956E-1","4,558559895E0","7,153874874E0"
520,"2,298433632E-1","5,018246651E0","7,948749542E0"
521,"6,895300746E-1","4,405331135E0","8,111555099E0"
522,"1,608903527E0","4,252102375E0","7,000645638E0"
523,"1,762132406E0","4,405331135E0","7,316680431E0"
524,"1,455674648E0","4,558559895E0","7,469909191E0"
525,"6,895300746E-1","3,792415380E0","1,001733971E1"
526,"-7,661445439E-2","5,324704647E0","7,153874874E0"
527,"-8,427590132E-1","5,171475887E0","9,701305389E0"
528,"-5,363011956E-1","4,711789131E0","9,069235802E0"
529,"-8,427590132E-1","4,865017891E0","9,385271072E0"
530,"2,298433632E-1","5,784391403E0","7,795520782E0"
531,"-7,661445439E-2","5,171475887E0","7,632715225E0"
532,"-7,661445439E-2","4,711789131E0","8,427590370E0"
533,"-7,661445439E-2","4,252102375E0","7,948749542E0"
534,"-1,149216771E0","4,558559895E0","7,632715225E0"
535,"2,298433632E-1","4,558559895E0","8,427590370E0"
536,"6,895300746E-1","4,405331135E0","1,208592987E1"
537,"5,363011956E-1","3,179499865E0","1,001733971E1"
538,"-2,298433632E-1","3,485957623E0","6,521805286E0"
539,"-1,302445769E0","3,945644379E0","9,864110947E0"
540,"-5,363011956E-1","4,252102375E0","7,795520782E0"
541,"-1,762132406E0","3,639186621E0","1,001733971E1"
542,"-6,895300746E-1","3,179499865E0","1,097502041E1"
543,"1,302445769E0","3,639186621E0","9,538499832E0"
544,"1,149216771E0","4,098873138E0","8,111555099E0"
545,"1,302445769E0","4,252102375E0","9,701305389E0"
546,"1,608903527E0","5,171475887E0","7,795520782E0"
547,"9,959878922E-1","4,098873138E0","7,795520782E0"
548,"-6,895300746E-1","4,252102375E0","1,018014526E1"
549,"9,959878922E-1","4,711789131E0","9,069235802E0"
550,"6,895300746E-1","3,792415380E0","9,222464561E0"
551,"2,298433632E-1","3,639186621E0","8,111555099E0"
552,"8,427590132E-1","3,179499865E0","8,590395927E0"
553,"-8,427590132E-1","4,865017891E0","1,367568016E1"
554,"1,149216771E0","4,252102375E0","9,069235802E0"
555,"1,302445769E0","3,945644379E0","9,385271072E0"
556,"5,363011956E-1","3,485957623E0","9,538499832E0"
557,"1,149216771E0","4,098873138E0","7,948749542E0"
558,"1,455674648E0","3,945644379E0","8,111555099E0"
559,"-5,363011956E-1","1,493981838E0","3,495534420E0"
560,"-6,895300746E-1","3,945644379E0","9,385271072E0"
561,"9,959878922E-1","4,405331135E0","6,837840080E0"
562,"-8,427590132E-1","4,711789131E0","8,743624687E0"
563,"-1,149216771E0","5,171475887E0","7,632715225E0"
564,"3,830722570E-1","3,639186621E0","7,632715225E0"
565,"-2,298433632E-1","3,945644379E0","8,743624687E0"
566,"5,363011956E-1","3,179499865E0","8,590395927E0"
567,"-2,298433632E-1","3,945644379E0","1,034295177E1"
568,"1,149216771E0","5,324704647E0","7,948749542E0"
569,"3,830722570E-1","5,784391403E0","8,590395927E0"
570,"2,298433632E-1","4,865017891E0","8,906430244E0"
571,"-1,915361404E0","3,945644379E0","1,001733971E1"
572,"6,895300746E-1","5,018246651E0","7,632715225E0"
573,"9,959878922E-1","5,784391403E0","5,880159378E0"
574,"9,959878922E-1","5,018246651E0","1,224873543E1"
575,"6,895300746E-1","4,711789131E0","8,743624687E0"
576,"-7,661445439E-2","4,865017891E0","7,316680431E0"
577,"-7,661445439E-2","4,711789131E0","7,153874874E0"
578,"1,149216771E0","3,639186621E0","8,274360657E0"
579,"-6,895300746E-1","4,711789131E0","9,701305389E0"
580,"3,830722570E-1","4,098873138E0","8,427590370E0"
581,"3,830722570E-1","4,558559895E0","9,069235802E0"
582,"7,661445439E-2","3,485957623E0","1,081221485E1"
583,"-7,661445439E-2","4,252102375E0","8,427590370E0"
584,"-7,661445439E-2","4,098873138E0","7,000645638E0"
585,"3,830722570E-1","4,558559895E0","7,000645638E0"
586,"-5,363011956E-1","4,252102375E0","9,385271072E0"
587,"-6,895300746E-1","5,171475887E0","7,000645638E0"
588,"-1,915361404E0","2,719813108E0","1,590707588E1"
589,"-1,302445769E0","6,090848923E0","8,427590370E0"
590,"-5,363011956E-1","4,098873138E0","7,316680431E0"
591,"-1,149216771E0","3,945644379E0","1,097502041E1"
592,"6,895300746E-1","5,477933407E0","9,701305389E0"
593,"5,363011956E-1","5,324704647E0","1,049618053E1"
594,"1,762132406E0","3,179499865E0","9,538499832E0"
595,"5,363011956E-1","4,098873138E0","9,385271072E0"
596,"6,895300746E-1","3,792415380E0","9,069235802E0"
597,"5,363011956E-1","4,558559895E0","8,906430244E0"
598,"-1,302445769E0","4,252102375E0","9,222464561E0"
599,"1,302445769E0","3,332728863E0","8,274360657E0"
600,"1,149216771E0","3,639186621E0","7,316680431E0"
601,"-1,149216771E0","4,865017891E0","8,906430244E0"
602,"-1,149216771E0","3,945644379E0","8,274360657E0"
603,"-1,762132406E0","5,171475887E0","9,385271072E0"
604,"-2,528276920E0","3,485957623E0","1,129105568E1"
605,"-7,661445439E-2","6,090848923E0","7,795520782E0"
606,"1,608903527E0","5,784391403E0","6,837840080E0"
607,"8,427590132E-1","4,711789131E0","6,837840080E0"
608,"1,302445769E0","4,252102375E0","8,743624687E0"
609,"1,455674648E0","4,558559895E0","8,427590370E0"
610,"-7,661445439E-2","4,865017891E0","9,222464561E0"
611,"2,298433632E-1","5,171475887E0","7,795520782E0"
612,"-1,762132406E0","5,171475887E0","1,049618053E1"
613,"-3,830722570E-1","4,098873138E0","1,176989555E1"
614,"2,221819162E0","3,639186621E0","8,427590370E0"
615,"6,895300746E-1","3,945644379E0","7,948749542E0"
616,"1,762132406E0","5,018246651E0","5,726930618E0"
617,"6,895300746E-1","5,784391403E0","9,069235802E0"
618,"-7,661445439E-2","4,865017891E0","8,111555099E0"
619,"-9,959878922E-1","5,631162167E0","7,948749542E0"
620,"-2,298433632E-1","4,252102375E0","8,590395927E0"
621,"2,298433632E-1","6,397306919E0","7,948749542E0"
622,"7,661445439E-2","5,324704647E0","7,469909191E0"
623,"5,363011956E-1","5,018246651E0","7,469909191E0"
624,"6,895300746E-1","4,252102375E0","8,590395927E0"
625,"1,762132406E0","5,477933407E0","7,469909191E0"
626,"9,959878922E-1","2,873042107E0","1,065898609E1"
627,"-6,895300746E-1","2,719813108E0","7,948749542E0"
628,"2,298433632E-1","3,485957623E0","7,632715225E0"
629,"-8,427590132E-1","3,332728863E0","1,049618053E1"
630,"-1,608903527E0","4,098873138E0","9,385271072E0"
631,"-1,762132406E0","3,945644379E0","1,001733971E1"
632,"-3,830722570E-1","5,477933407E0","7,948749542E0"
633,"7,661445439E-2","4,558559895E0","7,632715225E0"
634,"5,363011956E-1","3,332728863E0","9,069235802E0"
635,"1,149216771E0","3,639186621E0","6,521805286E0"
636,"1,455674648E0","3,332728863E0","1,018014526E1"
637,"2,298433632E-1","3,485957623E0","1,288080502E1"
638,"1,762132406E0","4,252102375E0","7,316680431E0"
639,"8,427590132E-1","4,252102375E0","9,701305389E0"
640,"3,830722570E-1","2,719813108E0","9,538499832E0"
641,"3,830722570E-1","3,179499865E0","8,906430244E0"
642,"9,959878922E-1","2,719813108E0","6,837840080E0"
643,"2,298433632E-1","5,018246651E0","7,948749542E0"
644,"1,302445769E0","5,171475887E0","9,222464561E0"
645,"9,959878922E-1","5,018246651E0","8,111555099E0"
646,"2,298433632E-1","2,873042107E0","9,385271072E0"
647,"-2,298433632E-1","2,719813108E0","9,701305389E0"
648,"-1,455674648E0","3,332728863E0","7,632715225E0"
649,"-2,221819162E0","3,639186621E0","1,018014526E1"
650,"-1,455674648E0","3,485957623E0","8,111555099E0"
651,"-6,895300746E-1","3,485957623E0","8,111555099E0"
652,"-9,959878922E-1","3,945644379E0","1,049618053E1"
653,"5,363011956E-1","2,873042107E0","9,069235802E0"
654,"9,959878922E-1","3,026270866E0","9,222464561E0"
655,"8,427590132E-1","3,332728863E0","1,018014526E1"
656,"-1,149216771E0","3,485957623E0","9,538499832E0"
657,"-1,608903527E0","3,332728863E0","8,906430244E0"
658,"-2,298433632E-1","5,324704647E0","6,837840080E0"
659,"6,895300746E-1","4,252102375E0","9,538499832E0"
660,"1,302445769E0","4,711789131E0","9,069235802E0"
661,"8,427590132E-1","5,477933407E0","8,906430244E0"
662,"-7,661445439E-2","5,937620163E0","8,427590370E0"
663,"-5,363011956E-1","4,405331135E0","9,222464561E0"
664,"-6,895300746E-1","4,865017891E0","8,274360657E0"
665,"-3,830722570E-1","5,018246651E0","7,632715225E0"
666,"-5,363011956E-1","5,631162167E0","7,948749542E0"
667,"3,830722570E-1","3,485957623E0","9,538499832E0"
668,"5,363011956E-1","3,026270866E0","9,069235802E0"
669,"5,363011956E-1","3,792415380E0","9,385271072E0"
670,"2,298433632E-1","2,719813108E0","1,113782597E1"
671,"-7,661445439E-2","3,639186621E0","8,743624687E0"
672,"-2,298433632E-1","3,639186621E0","1,018014526E1"
673,"5,363011956E-1","4,098873138E0","8,906430244E0"
674,"2,298433632E-1","3,639186621E0","8,906430244E0"
675,"-1,302445769E0","3,332728863E0","8,274360657E0"
676,"-2,375048161E0","3,485957623E0","9,864110947E0"
677,"-5,363011956E-1","3,792415380E0","8,427590370E0"
678,"7,661445439E-2","3,945644379E0","8,274360657E0"
679,"3,830722570E-1","3,792415380E0","8,590395927E0"
680,"1,302445769E0","3,179499865E0","8,743624687E0"
681,"3,830722570E-1","4,405331135E0","9,222464561E0"
682,"-3,830722570E-1","3,639186621E0","9,069235802E0"
683,"-1,608903527E0","3,945644379E0","9,222464561E0"
684,"-5,363011956E-1","3,945644379E0","8,427590370E0"
685,"2,298433632E-1","3,792415380E0","9,222464561E0"
686,"-7,661445439E-2","3,485957623E0","9,864110947E0"
687,"-2,298433632E-1","3,945644379E0","1,081221485E1"
688,"2,298433632E-1","3,639186621E0","9,538499832E0"
689,"-3,830722570E-1","4,098873138E0","8,590395927E0"
690,"-8,427590132E-1","4,865017891E0","7,632715225E0"
691,"-1,302445769E0","4,098873138E0","8,427590370E0"
692,"-1,455674648E0","4,098873138E0","8,427590370E0"
693,"-1,302445769E0","4,252102375E0","8,427590370E0"
694,"-1,149216771E0","4,098873138E0","9,222464561E0"
695,"-5,363011956E-1","4,098873138E0","8,906430244E0"
696,"-2,221819162E0","5,018246651E0","8,427590370E0"
697,"7,661445439E-2","4,405331135E0","7,316680431E0"
698,"9,959878922E-1","3,332728863E0","8,274360657E0"
699,"5,363011956E-1","3,945644379E0","8,427590370E0"
700,"2,298433632E-1","3,485957623E0","1,018014526E1"
701,"1,302445769E0","4,252102375E0","7,316680431E0"
702,"1,302445769E0","5,018246651E0","6,042964935E0"
703,"9,959878922E-1","5,324704647E0","7,316680431E0"
704,"-6,895300746E-1","3,792415380E0","9,385271072E0"
705,"-1,149216771E0","4,405331135E0","6,837840080E0"
706,"-2,375048161E0","4,405331135E0","1,018014526E1"
707,"-3,830722570E-1","4,558559895E0","6,521805286E0"
708,"-2,298433632E-1","4,252102375E0","8,906430244E0"
709,"3,830722570E-1","3,792415380E0","7,000645638E0"
710,"3,830722570E-1","4,558559895E0","8,111555099E0"
711,"-7,661445439E-2","3,332728863E0","9,701305389E0"
712,"1,149216771E0","3,179499865E0","9,385271072E0"
713,"2,298433632E-1","2,719813108E0","1,081221485E1"
714,"7,661445439E-2","3,026270866E0","7,316680431E0"
715,"-3,830722570E-1","3,026270866E0","7,469909191E0"
716,"-2,298433632E-1","2,719813108E0","1,034295177E1"
717,"-8,427590132E-1","5,018246651E0","8,274360657E0"
718,"-1,915361404E0","3,945644379E0","8,743624687E0"
719,"-2,681505919E0","4,098873138E0","7,000645638E0"
720,"-6,895300746E-1","3,332728863E0","8,743624687E0"
721,"7,661445439E-2","5,171475887E0","6,521805286E0"
722,"-8,427590132E-1","4,865017891E0","9,864110947E0"
723,"-6,895300746E-1","4,252102375E0","7,000645638E0"
724,"-1,762132406E0","4,098873138E0","6,837840080E0"
725,"7,661445439E-2","4,252102375E0","8,906430244E0"
726,"1,302445769E0","3,332728863E0","8,427590370E0"
727,"3,830722570E-1","3,179499865E0","1,018014526E1"
728,"1,455674648E0","4,252102375E0","8,743624687E0"
729,"9,959878922E-1","5,477933407E0","8,111555099E0"
730,"2,298433632E-1","4,252102375E0","9,069235802E0"
731,"-8,427590132E-1","3,945644379E0","9,222464561E0"
732,"-1,455674648E0","4,558559895E0","8,274360657E0"
733,"7,661445439E-2","3,792415380E0","8,111555099E0"
734,"-6,895300746E-1","5,171475887E0","8,906430244E0"
735,"5,363011956E-1","5,018246651E0","7,153874874E0"
736,"8,427590132E-1","4,098873138E0","8,427590370E0"
737,"-3,830722570E-1","3,945644379E0","1,018014526E1"
738,"6,895300746E-1","3,945644379E0","9,385271072E0"
739,"-3,830722570E-1","2,566584110E0","1,670195198E1"
740,"1,149216771E0","5,324704647E0","8,906430244E0"
741,"-1,302445769E0","5,477933407E0","8,906430244E0"
742,"-5,363011956E-1","4,405331135E0","8,274360657E0"
743,"3,830722570E-1","5,477933407E0","8,427590370E0"
744,"2,221819162E0","6,550535679E0","8,743624687E0"
745,"1,302445769E0","5,784391403E0","6,042964935E0"
746,"9,959878922E-1","5,324704647E0","5,880159378E0"
747,"1,762132406E0","4,405331135E0","8,427590370E0"
748,"1,762132406E0","4,558559895E0","8,274360657E0"
749,"1,762132406E0","4,865017891E0","8,274360657E0"
750,"8,427590132E-1","5,784391403E0","8,274360657E0"
751,"1,302445769E0","5,784391403E0","5,726930618E0"
752,"-8,427590132E-1","5,324704647E0","7,948749542E0"
753,"2,298433632E-1","5,171475887E0","8,427590370E0"
754,"3,830722570E-1","4,405331135E0","7,469909191E0"
755,"8,427590132E-1","4,865017891E0","6,837840080E0"
756,"7,661445439E-2","4,865017891E0","9,069235802E0"
757,"6,895300746E-1","4,711789131E0","8,743624687E0"
758,"-9,959878922E-1","5,477933407E0","8,427590370E0"
759,"-3,830722570E-1","4,405331135E0","9,069235802E0"
760,"1,149216771E0","5,784391403E0","8,274360657E0"
761,"3,830722570E-1","5,784391403E0","8,427590370E0"
762,"2,298433632E-1","4,865017891E0","7,795520782E0"
763,"3,830722570E-1","3,332728863E0","1,034295177E1"
764,"2,298433632E-1","3,945644379E0","9,385271072E0"
765,"2,068590164E0","5,018246651E0","7,153874874E0"
766,"-1,915361404E0","2,719813108E0","7,000645638E0"
767,"-6,512228489E0","1,187524080E0","4,769249916E0"
768,"-6,665457726E0","-6,512228847E-1","7,153874874E0"
769,"-1,915361404E0","1,953668594E0","7,948749542E0"
770,"-9,959878922E-1","6,550535679E0","7,000645638E0"
771,"-2,298433632E-1","4,865017891E0","7,153874874E0"
772,"2,298433632E-1","4,098873138E0","8,274360657E0"
773,"9,959878922E-1","3,179499865E0","8,274360657E0"
774,"6,895300746E-1","3,485957623E0","1,097502041E1"
775,"-8,427590132E-1","5,937620163E0","7,632715225E0"
776,"-8,427590132E-1","5,784391403E0","8,111555099E0"
777,"-7,661445439E-2","5,171475887E0","7,948749542E0"
778,"2,298433632E-1","5,477933407E0","6,521805286E0"
779,"-9,959878922E-1","3,792415380E0","9,864110947E0"
780,"7,661445439E-2","3,485957623E0","8,743624687E0"
781,"2,298433632E-1","3,792415380E0","9,385271072E0"
782,"3,830722570E-1","3,179499865E0","1,001733971E1"
783,"2,298433632E-1","3,026270866E0","9,701305389E0"
784,"-3,830722570E-1","4,252102375E0","8,906430244E0"
785,"-1,302445769E0","3,639186621E0","7,948749542E0"
786,"-2,068590164E0","2,873042107E0","1,081221485E1"
787,"-9,959878922E-1","3,179499865E0","9,538499832E0"
788,"-2,298433632E-1","3,026270866E0","9,538499832E0"
789,"7,661445439E-2","2,873042107E0","9,385271072E0"
790,"9,959878922E-1","3,945644379E0","7,948749542E0"
791,"7,661445439E-2","3,945644379E0","1,081221485E1"
792,"-3,830722570E-1","3,792415380E0","6,358999729E0"
793,"-2,298433632E-1","3,792415380E0","7,632715225E0"
794,"-5,363011956E-1","3,332728863E0","1,081221485E1"
795,"2,298433632E-1","3,179499865E0","9,538499832E0"
796,"-2,298433632E-1","2,566584110E0","9,538499832E0"
797,"-7,661445439E-2","2,873042107E0","1,113782597E1"
798,"3,830722570E-1","2,873042107E0","9,864110947E0"
799,"6,895300746E-1","2,719813108E0","9,538499832E0"
800,"9,959878922E-1","3,179499865E0","8,111555099E0"
801,"6,895300746E-1","3,026270866E0","9,701305389E0"
802,"3,830722570E-1","3,485957623E0","8,274360657E0"
803,"5,363011956E-1","3,485957623E0","8,906430244E0"
804,"-3,830722570E-1","3,332728863E0","8,427590370E0"
805,"-2,068590164E0","3,639186621E0","8,111555099E0"
806,"-3,830722570E-1","5,784391403E0","8,427590370E0"
807,"3,830722570E-1","6,397306919E0","8,111555099E0"
808,"1,762132406E0","5,018246651E0","7,948749542E0"
809,"1,455674648E0","5,018246651E0","8,743624687E0"
810,"2,068590164E0","5,631162167E0","7,153874874E0"
811,"-5,363011956E-1","5,171475887E0","1,049618053E1"
812,"-5,363011956E-1","5,477933407E0","7,632715225E0"
813,"-1,302445769E0","8,810662031E-1","9,222464561E0"
814,"-8,427590132E-1","-9,576807022E-1","1,049618053E1"
815,"-7,661445439E-2","-3,447650373E-1","8,427590370E0"
816,"-2,298433632E-1","-3,830722719E-2","9,222464561E0"
817,"-2,834734917E0","8,810662031E-1","2,036029053E1"
818,"-9,959878922E-1","2,260126352E0","6,358999729E0"
819,"-9,959878922E-1","2,681505978E-1","1,208592987E1"
820,"-2,298433632E-1","-4,979939461E-1","1,304361057E1"
821,"-1,302445769E0","1,187524080E0","7,000645638E0"
822,"-1,762132406E0","1,187524080E0","7,632715225E0"
823,"-9,959878922E-1","1,493981838E0","1,018014526E1"
824,"5,363011956E-1","2,106897593E0","7,948749542E0"
825,"-5,363011956E-1","4,558559895E0","9,538499832E0"
826,"-2,298433632E-1","4,711789131E0","5,564124584E0"
827,"-7,661445439E-2","5,937620163E0","5,085284233E0"
828,"7,661445439E-2","4,252102375E0","1,097502041E1"
829,"5,363011956E-1","5,324704647E0","7,000645638E0"
830,"-1,762132406E0","4,711789131E0","6,675034523E0"
831,"-2,681505919E0","4,098873138E0","1,034295177E1"
832,"5,363011956E-1","3,026270866E0","8,274360657E0"
833,"8,427590132E-1","4,558559895E0","5,248090267E0"
834,"-2,375048161E0","4,558559895E0","1,081221485E1"
835,"1,149216771E0","5,631162167E0","6,205770969E0"
836,"6,895300746E-1","4,252102375E0","8,274360657E0"
837,"-8,427590132E-1","6,244078159E0","6,358999729E0"
838,"-3,830722570E-1","5,171475887E0","9,701305389E0"
839,"1,455674648E0","6,090848923E0","6,205770969E0"
840,"6,895300746E-1","5,477933407E0","7,316680431E0"
841,"3,830722570E-1","5,631162167E0","8,427590370E0"
842,"-2,987963676E0","3,026270866E0","1,431732655E1"
843,"-2,221819162E0","3,485957623E0","1,018014526E1"
844,"-3,830722570E-1","3,026270866E0","1,272757626E1"
845,"3,830722570E-1","3,179499865E0","7,632715225E0"
846,"5,363011956E-1","4,252102375E0","7,632715225E0"
847,"-5,363011956E-1","2,106897593E0","7,795520782E0"
848,"-8,427590132E-1","2,873042107E0","7,153874874E0"
849,"5,363011956E-1","4,558559895E0","4,606443882E0"
850,"-6,895300746E-1","2,260126352E0","1,097502041E1"
851,"1,149216771E0","3,026270866E0","7,469909191E0"
852,"-7,661445439E-2","2,873042107E0","9,222464561E0"
853,"-7,661445439E-2","6,397306919E0","6,675034523E0"
854,"-5,363011956E-1","3,026270866E0","8,743624687E0"
855,"-5,363011956E-1","1,034295082E0","1,160709000E1"
856,"-2,298433632E-1","1,493981838E0","1,335964584E1"
857,"9,959878922E-1","3,485957623E0","9,222464561E0"
858,"1,608903527E0","2,260126352E0","9,069235802E0"
859,"1,762132406E0","3,485957623E0","8,111555099E0"
860,"-2,298433632E-1","3,639186621E0","1,081221485E1"
861,"-1,762132406E0","2,260126352E0","9,701305389E0"
862,"-2,987963676E0","2,413355350E0","1,001733971E1"
863,"-1,302445769E0","2,873042107E0","9,385271072E0"
864,"1,608903527E0","4,213795066E-1","1,097502041E1"
865,"-7,661445439E-2","1,493981838E0","8,906430244E0"
866,"5,363011956E-1","2,719813108E0","7,795520782E0"
867,"-1,302445769E0","2,873042107E0","9,864110947E0"
868,"-2,987963676E0","3,026270866E0","1,176989555E1"
869,"1,149216771E0","3,792415380E0","2,863465309E0"
870,"1,762132406E0","3,026270866E0","3,658340216E0"
871,"7,661445439E-2","4,865017891E0","7,316680431E0"
872,"3,830722570E-1","3,639186621E0","1,208592987E1"
873,"2,375048161E0","3,945644379E0","6,675034523E0"
874,"2,375048161E0","4,252102375E0","4,932055473E0"
875,"5,363011956E-1","1,800439715E0","1,145386124E1"
876,"-6,895300746E-1","4,098873138E0","8,427590370E0"
877,"3,830722570E-1","2,873042107E0","1,145386124E1"
878,"-7,661445439E-2","1,149216816E-1","1,145386124E1"
879,"1,915361404E0","2,106897593E0","8,906430244E0"
880,"-7,661445439E-2","2,566584110E0","8,427590370E0"
881,"1,302445769E0","1,647210717E0","8,590395927E0"
882,"6,895300746E-1","1,953668594E0","6,358999729E0"
883,"8,427590132E-1","3,639186621E0","1,034295177E1"
884,"-7,661445439E-2","1,953668594E0","9,385271072E0"
885,"-7,661445439E-2","1,647210717E0","1,001733971E1"
886,"-9,959878922E-1","1,953668594E0","7,948749542E0"
887,"3,830722570E-1","2,719813108E0","7,948749542E0"
888,"-8,427590132E-1","1,340752959E0","1,145386124E1"
889,"-1,455674648E0","1,187524080E0","1,065898609E1"
890,"-3,830722570E-1","1,647210717E0","7,632715225E0"
891,"9,959878922E-1","1,647210717E0","9,385271072E0"
892,"-1,455674648E0","-3,447650373E-1","1,145386124E1"
893,"-7,661445439E-2","2,681505978E-1","7,153874874E0"
894,"-7,661445439E-2","7,278373241E-1","8,906430244E0"
895,"-1,762132406E0","2,681505978E-1","1,049618053E1"
896,"3,830722570E-1","1,800439715E0","5,880159378E0"
897,"-7,661445439E-2","1,034295082E0","9,701305389E0"
898,"3,830722570E-1","2,719813108E0","9,222464561E0"
899,"-6,895300746E-1","2,413355350E0","7,948749542E0"
900,"-1,915361404E0","1,953668594E0","9,538499832E0"
901,"-8,427590132E-1","-4,979939461E-1","5,564124584E0"
902,"8,427590132E-1","8,810662031E-1","1,193270111E1"
903,"1,302445769E0","1,647210717E0","1,145386124E1"
904,"1,455674648E0","1,953668594E0","8,906430244E0"
905,"6,895300746E-1","1,647210717E0","8,274360657E0"
906,"1,762132406E0","4,213795066E-1","8,590395927E0"
907,"3,830722570E-1","8,810662031E-1","9,701305389E0"
908,"-7,661445439E-2","2,873042107E0","9,701305389E0"
909,"9,959878922E-1","3,332728863E0","9,864110947E0"
910,"7,661445439E-2","1,953668594E0","6,837840080E0"
911,"8,427590132E-1","2,413355350E0","8,274360657E0"
912,"2,221819162E0","2,719813108E0","7,469909191E0"
913,"2,298433632E-1","2,873042107E0","5,564124584E0"
914,"-1,149216771E0","7,278373241E-1","1,511220074E1"
915,"-1,149216771E0","1,340752959E0","1,065898609E1"
916,"-3,830722570E-1","2,260126352E0","8,590395927E0"
917,"1,149216771E0","2,260126352E0","6,521805286E0"
918,"1,608903527E0","2,719813108E0","1,081221485E1"
919,"5,363011956E-1","4,252102375E0","7,469909191E0"
920,"-7,661445439E-2","2,566584110E0","9,538499832E0"
921,"-1,149216771E0","2,566584110E0","1,001733971E1"
922,"-1,455674648E0","1,493981838E0","1,034295177E1"
923,"-5,363011956E-1","2,260126352E0","7,000645638E0"
924,"-3,830722570E-1","2,106897593E0","8,906430244E0"
925,"-2,298433632E-1","8,810662031E-1","1,448013210E1"
926,"-1,149216771E0","1,800439715E0","1,176989555E1"
927,"-7,661445439E-2","1,647210717E0","9,538499832E0"
928,"-3,830722570E-1","1,034295082E0","9,864110947E0"
929,"-1,149216771E0","2,719813108E0","1,034295177E1"
930,"-3,830722570E-1","4,865017891E0","1,034295177E1"
931,"-2,298433632E-1","4,098873138E0","8,590395927E0"
932,"5,363011956E-1","2,873042107E0","9,701305389E0"
933,"5,363011956E-1","1,953668594E0","1,018014526E1"
934,"6,895300746E-1","2,873042107E0","8,906430244E0"
935,"-9,959878922E-1","1,647210717E0","1,129105568E1"
936,"8,427590132E-1","2,106897593E0","7,948749542E0"
937,"5,363011956E-1","1,647210717E0","8,590395927E0"
938,"5,363011956E-1","1,493981838E0","1,001733971E1"
939,"2,298433632E-1","2,260126352E0","9,701305389E0"
940,"-7,661445439E-2","2,719813108E0","1,129105568E1"
941,"1,149216771E0","1,953668594E0","8,743624687E0"
942,"-8,427590132E-1","5,018246651E0","8,590395927E0"
943,"-2,298433632E-1","4,252102375E0","1,065898609E1"
944,"-1,455674648E0","4,252102375E0","8,111555099E0"
945,"-3,830722570E-1","3,332728863E0","1,081221485E1"
946,"-3,830722570E-1","2,719813108E0","6,837840080E0"
947,"-3,830722570E-1","2,260126352E0","1,065898609E1"
948,"-7,661445439E-2","3,945644379E0","7,316680431E0"
949,"1,915361404E0","5,324704647E0","6,205770969E0"
950,"2,298433632E-1","2,566584110E0","6,521805286E0"
951,"7,661445439E-2","2,260126352E0","9,538499832E0"
952,"9,959878922E-1","2,566584110E0","1,049618053E1"
953,"-6,895300746E-1","3,026270866E0","9,385271072E0"
954,"-2,298433632E-1","1,953668594E0","1,463336086E1"
955,"-9,959878922E-1","1,187524080E0","1,081221485E1"
956,"-2,375048161E0","1,493981838E0","9,864110947E0"
957,"-1,149216771E0","7,278373241E-1","1,463336086E1"
958,"3,830722570E-1","2,873042107E0","7,948749542E0"
959,"6,895300746E-1","1,647210717E0","9,385271072E0"
960,"8,427590132E-1","3,792415380E0","1,001733971E1"
961,"8,427590132E-1","2,106897593E0","1,081221485E1"
962,"9,959878922E-1","1,647210717E0","9,701305389E0"
963,"2,298433632E-1","1,647210717E0","7,469909191E0"
964,"-1,608903527E0","1,340752959E0","1,193270111E1"
965,"-5,363011956E-1","8,810662031E-1","1,001733971E1"
966,"2,298433632E-1","1,034295082E0","9,538499832E0"
967,"-7,661445439E-2","8,810662031E-1","1,065898609E1"
968,"3,830722570E-1","1,647210717E0","9,864110947E0"
969,"8,427590132E-1","2,873042107E0","4,606443882E0"
970,"-1,762132406E0","1,493981838E0","1,383848572E1"
971,"-5,363011956E-1","1,800439715E0","9,864110947E0"
972,"3,830722570E-1","1,953668594E0","9,701305389E0"
973,"1,149216771E0","1,493981838E0","1,049618053E1"
974,"5,363011956E-1","1,800439715E0","8,743624687E0"
975,"9,959878922E-1","1,800439715E0","1,018014526E1"
976,"7,661445439E-2","2,566584110E0","7,795520782E0"
977,"-2,221819162E0","4,405331135E0","9,222464561E0"
978,"-3,830722570E-1","4,252102375E0","8,427590370E0"
979,"-9,959878922E-1","3,026270866E0","1,129105568E1"
980,"6,895300746E-1","2,566584110E0","1,018014526E1"
981,"-1,302445769E0","1,953668594E0","1,034295177E1"
982,"6,895300746E-1","2,873042107E0","9,701305389E0"
983,"3,830722570E-1","1,187524080E0","1,241154194E1"
984,"1,455674648E0","3,485957623E0","5,726930618E0"
985,"-8,427590132E-1","2,873042107E0","1,367568016E1"
986,"1,455674648E0","3,179499865E0","5,880159378E0"
987,"-8,427590132E-1","3,026270866E0","6,521805286E0"
988,"-1,149216771E0","1,953668594E0","8,427590370E0"
989,"-1,455674648E0","3,332728863E0","8,427590370E0"
990,"-2,298433632E-1","1,034295082E0","1,383848572E1"
991,"1,915361404E0","8,810662031E-1","1,145386124E1"
992,"8,427590132E-1","3,332728863E0","4,769249916E0"
993,"1,915361404E0","4,405331135E0","3,811569214E0"
994,"7,661445439E-2","2,413355350E0","9,222464561E0"
995,"-1,302445769E0","2,719813108E0","9,069235802E0"
996,"-3,830722570E-1","2,566584110E0","8,274360657E0"
997,"-2,298433632E-1","1,493981838E0","1,081221485E1"
998,"3,830722570E-1","2,106897593E0","6,042964935E0"
999,"1,455674648E0","2,719813108E0","7,153874874E0"
1000,"1,608903527E0","3,179499865E0","8,427590370E0"
1001,"5,363011956E-1","3,179499865E0","4,932055473E0"
1002,"7,661445439E-2","3,179499865E0","6,675034523E0"
1003,"-1,149216771E0","3,485957623E0","1,097502041E1"
1004,"-1,149216771E0","2,413355350E0","1,463336086E1"
1005,"8,427590132E-1","1,647210717E0","1,288080502E1"
1006,"3,141192675E0","3,485957623E0","7,153874874E0"
1007,"1,149216771E0","3,792415380E0","6,675034523E0"
1008,"-1,149216771E0","2,719813108E0","9,538499832E0"
1009,"-3,141192675E0","3,026270866E0","1,113782597E1"
1010,"-2,375048161E0","1,800439715E0","1,527500725E1"
1011,"-8,427590132E-1","2,719813108E0","7,316680431E0"
1012,"1,608903527E0","2,413355350E0","9,385271072E0"
1013,"-7,661445439E-2","1,493981838E0","1,320641613E1"
1014,"5,363011956E-1","2,719813108E0","6,521805286E0"
1015,"-1,915361404E0","1,953668594E0","1,479616642E1"
1016,"-5,363011956E-1","2,566584110E0","7,795520782E0"
1017,"1,149216771E0","3,179499865E0","8,274360657E0"
1018,"6,895300746E-1","3,639186621E0","1,034295177E1"
1019,"1,149216771E0","3,945644379E0","9,864110947E0"
1020,"1,302445769E0","1,647210717E0","1,304361057E1"
1021,"5,363011956E-1","3,332728863E0","7,153874874E0"
1022,"-2,375048161E0","4,405331135E0","1,160709000E1"
1023,"-9,959878922E-1","3,792415380E0","8,111555099E0"
1024,"8,427590132E-1","3,179499865E0","5,401319027E0"
1025,"1,302445769E0","3,332728863E0","9,385271072E0"
1026,"2,298433632E-1","2,873042107E0","1,049618053E1"
1027,"-2,298433632E-1","3,332728863E0","7,632715225E0"
1028,"-2,298433632E-1","2,413355350E0","1,097502041E1"
1029,"-6,895300746E-1","3,332728863E0","8,427590370E0"
1030,"6,895300746E-1","1,800439715E0","8,743624687E0"
1031,"2,298433632E-1","4,405331135E0","7,795520782E0"
1032,"2,298433632E-1","3,945644379E0","1,081221485E1"
1033,"-1,302445769E0","3,639186621E0","9,385271072E0"
1034,"-7,661445439E-2","5,171475887E0","6,675034523E0"
1035,"-2,298433632E-1","3,179499865E0","1,081221485E1"
1036,"1,608903527E0","3,639186621E0","6,358999729E0"
1037,"5,363011956E-1","3,945644379E0","8,274360657E0"
1038,"-7,661445439E-2","3,639186621E0","9,701305389E0"
1039,"-2,298433632E-1","3,485957623E0","8,906430244E0"
1040,"1,762132406E0","4,252102375E0","4,290409565E0"
1041,"5,363011956E-1","4,865017891E0","1,113782597E1"
1042,"-9,959878922E-1","4,098873138E0","1,065898609E1"
1043,"8,427590132E-1","5,784391403E0","7,000645638E0"
1044,"5,363011956E-1","3,179499865E0","9,864110947E0"
1045,"1,762132406E0","4,711789131E0","6,521805286E0"
1046,"2,681505919E0","6,244078159E0","8,427590370E0"
1047,"-1,149216771E0","6,397306919E0","1,145386124E1"
1048,"2,221819162E0","5,018246651E0","7,469909191E0"
1049,"8,427590132E-1","3,792415380E0","4,453215122E0"
1050,"6,895300746E-1","5,324704647E0","1,193270111E1"
1051,"1,762132406E0","4,098873138E0","8,743624687E0"
1052,"1,608903527E0","5,477933407E0","7,000645638E0"
1053,"8,427590132E-1","4,711789131E0","8,427590370E0"
1054,"5,363011956E-1","5,937620163E0","8,111555099E0"
1055,"8,427590132E-1","6,090848923E0","7,469909191E0"
1056,"1,608903527E0","5,784391403E0","8,111555099E0"
1057,"2,375048161E0","5,018246651E0","8,111555099E0"
1058,"2,221819162E0","4,865017891E0","7,795520782E0"
1059,"2,375048161E0","4,405331135E0","8,111555099E0"
1060,"8,427590132E-1","5,784391403E0","7,948749542E0"
1061,"6,895300746E-1","6,550535679E0","7,316680431E0"
1062,"6,895300746E-1","6,703764915E0","7,000645638E0"
1063,"5,363011956E-1","6,550535679E0","7,632715225E0"
1064,"-1,149216771E0","5,018246651E0","8,590395927E0"
1065,"9,959878922E-1","5,477933407E0","8,743624687E0"
1066,"-7,661445439E-2","4,865017891E0","8,111555099E0"
1067,"-7,661445439E-2","5,784391403E0","8,274360657E0"
1068,"2,221819162E0","5,018246651E0","8,743624687E0"
1069,"7,661445439E-2","5,324704647E0","9,222464561E0"
1070,"9,959878922E-1","4,252102375E0","8,906430244E0"
1071,"-3,830722570E-1","3,485957623E0","8,111555099E0"
1072,"8,427590132E-1","3,792415380E0","8,274360657E0"
1073,"6,895300746E-1","4,405331135E0","8,590395927E0"
1074,"5,363011956E-1","3,792415380E0","7,948749542E0"
1075,"1,149216771E0","3,639186621E0","8,111555099E0"
1076,"5,363011956E-1","3,945644379E0","8,590395927E0"
1077,"8,427590132E-1","5,018246651E0","8,274360657E0"
1078,"1,302445769E0","4,252102375E0","8,906430244E0"
1079,"7,661445439E-2","5,937620163E0","5,564124584E0"
1080,"7,661445439E-2","2,566584110E0","1,097502041E1"
1081,"-6,895300746E-1","3,332728863E0","9,864110947E0"
1082,"-8,427590132E-1","2,260126352E0","1,241154194E1"
1083,"3,830722570E-1","2,873042107E0","8,274360657E0"
1084,"-9,959878922E-1","3,945644379E0","7,000645638E0"
1085,"3,830722570E-1","3,179499865E0","9,538499832E0"
1086,"6,895300746E-1","2,260126352E0","1,097502041E1"
1087,"7,661445439E-2","4,098873138E0","1,034295177E1"
1088,"-1,302445769E0","2,873042107E0","8,743624687E0"
1089,"-3,830722570E-1","3,179499865E0","9,538499832E0"
1090,"-1,915361404E0","2,413355350E0","1,065898609E1"
1091,"-1,762132406E0","1,340752959E0","1,400129128E1"
1092,"2,298433632E-1","2,873042107E0","4,932055473E0"
1093,"1,149216771E0","4,558559895E0","6,358999729E0"
1094,"-2,068590164E0","4,098873138E0","9,069235802E0"
1095,"-9,959878922E-1","4,098873138E0","8,743624687E0"
1096,"3,830722570E-1","5,784391403E0","7,316680431E0"
1097,"2,298433632E-1","6,703764915E0","7,469909191E0"
1098,"-7,661445439E-2","6,703764915E0","7,948749542E0"
1099,"9,959878922E-1","4,558559895E0","9,385271072E0"
1100,"-3,830722570E-1","3,485957623E0","8,906430244E0"
1101,"6,895300746E-1","5,477933407E0","9,538499832E0"
1102,"7,661445439E-2","3,332728863E0","8,906430244E0"
1103,"1,608903527E0","3,332728863E0","6,675034523E0"
1104,"2,298433632E-1","3,639186621E0","7,000645638E0"
1105,"-1,149216771E0","3,026270866E0","9,069235802E0"
1106,"-2,221819162E0","3,332728863E0","1,081221485E1"
1107,"-2,221819162E0","2,566584110E0","1,224873543E1"
1108,"-1,302445769E0","2,413355350E0","9,864110947E0"
1109,"-2,298433632E-1","2,873042107E0","8,743624687E0"
1110,"2,298433632E-1","2,566584110E0","9,864110947E0"
1111,"7,661445439E-2","1,800439715E0","1,097502041E1"
1112,"1,608903527E0","2,873042107E0","9,701305389E0"
1113,"3,830722570E-1","2,260126352E0","9,069235802E0"
1114,"2,298433632E-1","2,719813108E0","9,069235802E0"
1115,"-8,427590132E-1","1,800439715E0","9,222464561E0"
1116,"-1,149216771E0","2,719813108E0","8,274360657E0"
1117,"2,298433632E-1","4,711789131E0","8,111555099E0"
1118,"-8,427590132E-1","1,800439715E0","1,081221485E1"
1119,"9,959878922E-1","4,098873138E0","6,205770969E0"
1120,"8,427590132E-1","1,493981838E0","8,743624687E0"
1121,"7,661445439E-2","2,106897593E0","7,469909191E0"
1122,"2,298433632E-1","3,026270866E0","9,538499832E0"
1123,"-8,427590132E-1","1,187524080E0","1,479616642E1"
1124,"-3,830722570E-1","2,566584110E0","6,521805286E0"
1125,"-2,298433632E-1","2,873042107E0","8,427590370E0"
1126,"-3,754108191E0","3,179499865E0","8,274360657E0"
1127,"-9,959878922E-1","1,340752959E0","1,224873543E1"
1128,"-2,834734917E0","2,566584110E0","1,001733971E1"
1129,"-2,681505919E0","1,187524080E0","1,049618053E1"
1130,"-2,528276920E0","1,493981838E0","8,906430244E0"
1131,"-1,302445769E0","4,558559895E0","9,864110947E0"
1132,"-2,298433632E-1","3,179499865E0","8,906430244E0"
1133,"-8,427590132E-1","3,792415380E0","9,222464561E0"
1134,"-6,895300746E-1","3,332728863E0","1,145386124E1"
1135,"-2,375048161E0","2,566584110E0","8,906430244E0"
1136,"-2,221819162E0","1,953668594E0","8,906430244E0"
1137,"-1,915361404E0","3,179499865E0","8,906430244E0"
1138,"-2,068590164E0","3,639186621E0","8,111555099E0"
1139,"-2,068590164E0","2,260126352E0","9,222464561E0"
1140,"1,302445769E0","2,260126352E0","1,001733971E1"
1141,"3,830722570E-1","2,413355350E0","7,153874874E0"
1142,"1,455674648E0","1,800439715E0","1,034295177E1"
1143,"7,661445439E-2","1,647210717E0","1,001733971E1"
1144,"1,149216771E0","2,106897593E0","9,701305389E0"
1145,"1,608903527E0","1,493981838E0","9,701305389E0"
1146,"-7,661445439E-2","2,566584110E0","9,538499832E0"
1147,"9,959878922E-1","1,800439715E0","1,065898609E1"
1148,"9,959878922E-1","3,179499865E0","7,153874874E0"
1149,"-8,427590132E-1","2,566584110E0","9,385271072E0"
1150,"-1,302445769E0","3,026270866E0","7,948749542E0"
1151,"5,363011956E-1","4,558559895E0","9,069235802E0"
1152,"2,298433632E-1","3,945644379E0","9,538499832E0"
1153,"-3,830722570E-1","1,340752959E0","8,111555099E0"
1154,"8,427590132E-1","-1,264138460E0","1,049618053E1"
1155,"5,363011956E-1","-6,512228847E-1","8,906430244E0"
1156,"9,959878922E-1","-6,512228847E-1","8,743624687E0"
1157,"-5,363011956E-1","-6,512228847E-1","1,081221485E1"
1158,"-2,221819162E0","-1,417367458E0","1,049618053E1"
1159,"-4,826710701E0","-1,264138460E0","8,111555099E0"
1160,"-4,060565948E0","2,719813108E0","4,453215122E0"
1161,"-3,907337189E0","1,034295082E0","1,081221485E1"
1162,"-6,895300746E-1","8,810662031E-1","4,932055473E0"
1163,"-2,987963676E0","2,681505978E-1","1,129105568E1"
1164,"-3,141192675E0","1,034295082E0","8,743624687E0"
1165,"-7,661445439E-2","2,681505978E-1","7,632715225E0"
1166,"-2,068590164E0","1,149216816E-1","9,385271072E0"
1167,"-4,213795185E0","1,647210717E0","9,069235802E0"
1168,"-2,834734917E0","-4,979939461E-1","1,145386124E1"
1169,"9,959878922E-1","-4,788403511E0","7,469909191E0"
1170,"-1,608903527E0","-4,328716755E0","9,385271072E0"
1171,"-2,375048161E0","-1,417367458E0","8,427590370E0"
1172,"-3,447650433E0","1,034295082E0","9,538499832E0"
1173,"-2,068590164E0","-1,877054095E0","1,208592987E1"
1174,"-3,754108191E0","-2,489969730E0","8,111555099E0"
1175,"-2,834734917E0","-4,979939461E-1","4,932055473E0"
1176,"-4,367023945E0","-2,030282974E0","1,018014526E1"
1177,"-3,141192675E0","-4,979939461E-1","9,701305389E0"
1178,"-4,520252705E0","-2,643198729E0","8,274360657E0"
1179,"-2,298433632E-1","5,631162167E0","9,069235802E0"
1180,"1,762132406E0","6,090848923E0","8,743624687E0"
1181,"-6,358999729E0","4,865017891E0","6,042964935E0"
1182,"4,520252705E0","1,187524080E0","8,590395927E0"
1183,"-5,363011956E-1","4,213795066E-1","1,049618053E1"
1184,"-2,298433632E-1","-3,447650373E-1","1,065898609E1"
1185,"2,834734917E0","4,213795066E-1","1,463336086E1"
1186,"-9,959878922E-1","-3,447650373E-1","9,222464561E0"
1187,"8,427590132E-1","2,681505978E-1","8,590395927E0"
1188,"-8,427590132E-1","-9,576807022E-1","9,069235802E0"
1189,"7,661445439E-2","5,746083856E-1","9,864110947E0"
1190,"7,661445439E-2","-1,110909581E0","1,065898609E1"
1191,"-7,661445439E-2","2,681505978E-1","1,097502041E1"
1192,"-1,455674648E0","7,278373241E-1","9,701305389E0"
1193,"-1,302445769E0","4,213795066E-1","9,069235802E0"
1194,"-1,455674648E0","1,149216816E-1","9,222464561E0"
1195,"8,427590132E-1","-4,979939461E-1","1,049618053E1"
1196,"-1,302445769E0","1,800439715E0","1,034295177E1"
1197,"1,455674648E0","6,090848923E0","5,401319027E0"
1198,"-1,302445769E0","3,639186621E0","8,274360657E0"
1199,"7,661445439E-2","2,413355350E0","7,469909191E0"
1200,"7,661445439E-2","4,252102375E0","1,081221485E1"
1201,"-6,895300746E-1","3,332728863E0","1,097502041E1"
1202,"-1,455674648E0","3,026270866E0","5,880159378E0"
1203,"-2,834734917E0","2,719813108E0","6,837840080E0"
1204,"-1,302445769E0","2,873042107E0","1,049618053E1"
1205,"-1,302445769E0","3,945644379E0","9,222464561E0"
1206,"-1,762132406E0","3,332728863E0","5,248090267E0"
1207,"-1,455674648E0","1,647210717E0","8,590395927E0"
1208,"7,661445439E-2","1,034295082E0","9,222464561E0"
1209,"-7,661445439E-2","3,179499865E0","1,113782597E1"
1210,"-5,363011956E-1","3,026270866E0","5,880159378E0"
1211,"-1,149216771E0","1,187524080E0","7,000645638E0"
1212,"-3,830722570E-1","2,681505978E-1","1,415452003E1"
1213,"-1,302445769E0","3,026270866E0","9,864110947E0"
1214,"-2,298433632E-1","2,566584110E0","6,837840080E0"
1215,"1,149216771E0","1,493981838E0","7,316680431E0"
1216,"6,895300746E-1","2,719813108E0","1,001733971E1"
1217,"2,298433632E-1","3,792415380E0","1,049618053E1"
1218,"-2,681505919E0","2,873042107E0","9,222464561E0"
1219,"4,826710701E0","-1,915361285E-1","6,042964935E0"
1220,"1,608903527E0","1,340752959E0","7,948749542E0"
1221,"-3,830722570E-1","-1,264138460E0","9,864110947E0"
1222,"6,895300746E-1","-9,576807022E-1","9,538499832E0"
1223,"-2,528276920E0","8,810662031E-1","9,701305389E0"
1224,"6,895300746E-1","-8,044517636E-1","9,864110947E0"
1225,"-8,504204750E0","-4,175487995E0","1,097502041E1"
1226,"-1,049618053E1","-2,643198729E0","5,401319027E0"
1227,"-6,358999729E0","-2,489969730E0","3,016694069E0"
1228,"-9,730035782E0","-2,643198729E0","3,658340216E0"
1229,"-2,375048161E0","-2,183511972E0","9,385271072E0"
1230,"4,213795185E0","1,034295082E0","8,590395927E0"
1231,"2,528276920E0","2,260126352E0","7,469909191E0"
1232,"2,221819162E0","1,340752959E0","7,469909191E0"
1233,"9,959878922E-1","5,477933407E0","8,427590370E0"
1234,"-7,661445439E-2","3,639186621E0","5,880159378E0"
1235,"8,427590132E-1","3,945644379E0","7,469909191E0"
1236,"-1,302445769E0","3,639186621E0","9,222464561E0"
1237,"-2,528276920E0","5,171475887E0","1,097502041E1"
1238,"-2,068590164E0","3,179499865E0","9,069235802E0"
1239,"7,661445439E-2","5,018246651E0","6,205770969E0"
1240,"-5,363011956E-1","3,945644379E0","3,495534420E0"
1241,"-6,895300746E-1","1,340752959E0","1,224873543E1"
1242,"-9,959878922E-1","3,485957623E0","9,701305389E0"
1243,"2,221819162E0","4,098873138E0","1,001733971E1"
1244,"-5,363011956E-1","3,639186621E0","6,358999729E0"
1245,"-2,298433632E-1","1,800439715E0","7,795520782E0"
1246,"1,608903527E0","-4,979939461E-1","1,511220074E1"
1247,"-8,427590132E-1","5,018246651E0","9,385271072E0"
1248,"-1,302445769E0","3,026270866E0","6,358999729E0"
1249,"1,302445769E0","1,187524080E0","6,675034523E0"
1250,"3,830722570E-1","1,800439715E0","7,632715225E0"
1251,"2,987963676E0","8,810662031E-1","1,224873543E1"
1252,"1,149216771E0","2,106897593E0","8,743624687E0"
1253,"5,363011956E-1","1,493981838E0","6,042964935E0"
1254,"4,826710701E0","3,332728863E0","1,256477070E1"
1255,"1,915361404E0","4,865017891E0","8,427590370E0"
1256,"2,068590164E0","2,873042107E0","6,042964935E0"
1257,"2,834734917E0","2,719813108E0","1,081221485E1"
1258,"9,959878922E-1","4,711789131E0","6,837840080E0"
1259,"-3,830722570E-1","3,639186621E0","9,701305389E0"
1260,"5,363011956E-1","6,550535679E0","7,153874874E0"
1261,"1,149216771E0","3,639186621E0","3,974374771E0"
1262,"1,608903527E0","6,397306919E0","6,042964935E0"
1263,"2,375048161E0","7,316680431E0","8,274360657E0"
1264,"2,221819162E0","3,945644379E0","6,358999729E0"
1265,"6,895300746E-1","4,252102375E0","7,000645638E0"
1266,"1,915361404E0","5,324704647E0","6,837840080E0"
1267,"9,959878922E-1","5,477933407E0","7,153874874E0"
1268,"9,959878922E-1","6,244078159E0","9,864110947E0"
1269,"1,149216771E0","4,405331135E0","5,726930618E0"
1270,"9,959878922E-1","5,784391403E0","6,837840080E0"
1271,"9,959878922E-1","6,397306919E0","9,069235802E0"
1272,"2,221819162E0","4,405331135E0","6,521805286E0"
1273,"2,298433632E-1","5,937620163E0","7,469909191E0"
1274,"2,987963676E0","5,324704647E0","1,145386124E1"
1275,"8,427590132E-1","3,179499865E0","7,000645638E0"
1276,"3,830722570E-1","4,405331135E0","6,837840080E0"
1277,"1,608903527E0","4,711789131E0","8,274360657E0"
1278,"-2,298433632E-1","4,865017891E0","9,222464561E0"
1279,"8,427590132E-1","1,647210717E0","6,837840080E0"
1280,"1,915361404E0","2,873042107E0","8,906430244E0"
1281,"2,068590164E0","3,945644379E0","1,081221485E1"
1282,"2,068590164E0","3,945644379E0","6,205770969E0"
1283,"2,068590164E0","8,810662031E-1","6,358999729E0"
1284,"2,068590164E0","1,647210717E0","7,000645638E0"
1285,"2,834734917E0","3,639186621E0","1,241154194E1"
1286,"-2,298433632E-1","4,252102375E0","8,274360657E0"
1287,"3,830722570E-1","2,106897593E0","6,837840080E0"
1288,"1,915361404E0","3,639186621E0","1,304361057E1"
1289,"8,427590132E-1","6,397306919E0","9,222464561E0"
1290,"1,149216771E0","3,485957623E0","6,042964935E0"
1291,"5,363011956E-1","1,340752959E0","6,521805286E0"
1292,"2,068590164E0","2,719813108E0","1,448013210E1"
1293,"6,895300746E-1","3,179499865E0","1,097502041E1"
1294,"3,830722570E-1","2,413355350E0","5,726930618E0"
1295,"2,528276920E0","8,810662031E-1","9,385271072E0"
1296,"1,915361404E0","2,719813108E0","9,864110947E0"
1297,"2,681505919E0","2,413355350E0","9,864110947E0"
1298,"-2,298433632E-1","2,873042107E0","7,153874874E0"
1299,"-5,363011956E-1","1,187524080E0","6,837840080E0"
1300,"2,987963676E0","-6,512228847E-1","1,829170036E1"
1301,"2,681505919E0","4,558559895E0","1,335964584E1"
1302,"3,830722570E-1","2,873042107E0","7,632715225E0"
1303,"3,830722570E-1","2,566584110E0","7,000645638E0"
1304,"2,298433632E-1","3,179499865E0","1,097502041E1"
1305,"1,915361404E0","3,179499865E0","1,160709000E1"
1306,"1,302445769E0","4,405331135E0","8,427590370E0"
1307,"1,302445769E0","3,639186621E0","4,453215122E0"
1308,"5,363011956E-1","2,719813108E0","7,316680431E0"
1309,"3,600879431E0","4,405331135E0","1,335964584E1"
1310,"4,826710701E0","6,090848923E0","1,081221485E1"
1311,"1,302445769E0","2,719813108E0","6,675034523E0"
1312,"2,681505919E0","5,018246651E0","8,111555099E0"
1313,"1,608903527E0","5,477933407E0","6,837840080E0"
1314,"9,959878922E-1","2,566584110E0","9,701305389E0"
1315,"2,987963676E0","-3,447650373E-1","1,829170036E1"
1316,"1,302445769E0","5,324704647E0","1,034295177E1"
1317,"3,830722570E-1","3,945644379E0","7,153874874E0"
1318,"3,830722570E-1","1,647210717E0","5,085284233E0"
1319,"1,455674648E0","3,945644379E0","8,906430244E0"
1320,"2,221819162E0","5,784391403E0","9,538499832E0"
1321,"1,302445769E0","6,550535679E0","9,069235802E0"
1322,"1,608903527E0","2,873042107E0","5,564124584E0"
1323,"1,149216771E0","2,719813108E0","4,769249916E0"
1324,"8,427590132E-1","2,413355350E0","6,837840080E0"
1325,"5,363011956E-1","2,566584110E0","6,205770969E0"
1326,"4,060565948E0","2,873042107E0","1,400129128E1"
1327,"-2,298433632E-1","5,171475887E0","1,304361057E1"
1328,"7,661445439E-2","5,477933407E0","1,049618053E1"
1329,"7,661445439E-2","4,098873138E0","4,137180328E0"
1330,"1,455674648E0","2,719813108E0","6,521805286E0"
1331,"2,834734917E0","2,873042107E0","1,304361057E1"
1332,"2,221819162E0","4,865017891E0","9,385271072E0"
1333,"3,907337189E0","3,945644379E0","9,538499832E0"
1334,"3,830722570E-1","3,332728863E0","5,880159378E0"
1335,"1,455674648E0","1,953668594E0","4,769249916E0"
1336,"3,830722570E-1","2,566584110E0","9,222464561E0"
1337,"5,363011956E-1","5,018246651E0","1,304361057E1"
1338,"2,298433632E-1","4,865017891E0","6,837840080E0"
1339,"3,830722570E-1","2,260126352E0","4,453215122E0"
1340,"1,762132406E0","2,260126352E0","6,042964935E0"
1341,"2,987963676E0","2,413355350E0","1,145386124E1"
1342,"3,600879431E0","3,945644379E0","1,272757626E1"
1343,"9,959878922E-1","4,865017891E0","5,564124584E0"
1344,"-8,427590132E-1","2,566584110E0","4,932055473E0"
1345,"2,375048161E0","5,746083856E-1","1,574427032E1"
1346,"5,363011956E-1","9,308655739E0","8,274360657E0"
1347,"3,830722570E-1","4,865017891E0","7,316680431E0"
1348,"1,608903527E0","1,800439715E0","3,811569214E0"
1349,"2,834734917E0","4,213795066E-1","1,765963173E1"
1350,"3,600879431E0","4,252102375E0","9,701305389E0"
1351,"1,149216771E0","2,413355350E0","6,358999729E0"
1352,"6,895300746E-1","1,800439715E0","5,564124584E0"
1353,"1,302445769E0","8,810662031E-1","8,906430244E0"
1354,"2,221819162E0","4,711789131E0","1,352245140E1"
1355,"1,762132406E0","4,558559895E0","1,145386124E1"
1356,"2,298433632E-1","3,485957623E0","4,453215122E0"
1357,"1,455674648E0","1,953668594E0","7,316680431E0"
1358,"2,375048161E0","2,413355350E0","9,222464561E0"
1359,"1,302445769E0","1,953668594E0","1,001733971E1"
1360,"3,294421434E0","2,260126352E0","9,222464561E0"
1361,"2,681505919E0","1,800439715E0","6,042964935E0"
1362,"1,149216771E0","1,187524080E0","7,469909191E0"
1363,"6,895300746E-1","3,179499865E0","1,208592987E1"
1364,"1,302445769E0","2,719813108E0","7,000645638E0"
1365,"9,959878922E-1","3,179499865E0","1,256477070E1"
1366,"3,294421434E0","3,179499865E0","7,948749542E0"
1367,"1,915361404E0","3,945644379E0","6,675034523E0"
1368,"8,427590132E-1","3,792415380E0","4,769249916E0"
1369,"-3,830722570E-1","5,324704647E0","5,401319027E0"
1370,"5,363011956E-1","5,477933407E0","1,001733971E1"
1371,"-5,363011956E-1","3,639186621E0","1,001733971E1"
1372,"7,661445439E-2","2,413355350E0","4,606443882E0"
1373,"-6,895300746E-1","1,647210717E0","6,675034523E0"
1374,"2,834734917E0","-7,852981567E0","8,743624687E0"
1375,"1,172201157E1","-6,627150536E0","4,932055473E0"
1376,"5,439626217E0","-1,723825216E0","2,537853718E0"
1377,"9,730035782E0","-2,949656487E0","2,221819162E0"
1378,"1,126232433E1","-6,014234543E0","3,495534420E0"
1379,"1,264138508E1","-1,110909581E0","3,811569214E0"
1380,"8,504204750E0","-4,481945515E0","4,606443882E0"
1381,"5,899312973E0","-2,949656487E0","3,179499865E0"
1382,"1,034295177E1","-6,473921299E0","8,111555099E0"
1383,"-7,661445439E-2","2,681505978E-1","1,065898609E1"
1384,"-3,600879431E0","-9,576807022E-1","1,018014526E1"
1385,"-1,915361404E0","2,681505978E-1","9,385271072E0"
1386,"-1,915361404E0","4,213795066E-1","9,385271072E0"
1387,"-2,068590164E0","7,278373241E-1","9,385271072E0"
1388,"-3,600879431E0","-3,447650373E-1","1,081221485E1"
1389,"6,665457726E0","-2,183511972E0","6,675034523E0"
1390,"4,520252705E0","-2,796427488E0","8,111555099E0"
1391,"9,959878922E-1","4,558559895E0","7,795520782E0"
1392,"4,826710701E0","2,566584110E0","1,097502041E1"
1393,"2,375048161E0","4,405331135E0","5,880159378E0"
1394,"1,915361404E0","3,332728863E0","3,658340216E0"
1395,"1,762132406E0","3,332728863E0","7,469909191E0"
1396,"2,068590164E0","3,179499865E0","8,906430244E0"
1397,"2,375048161E0","3,792415380E0","1,097502041E1"
1398,"2,375048161E0","3,179499865E0","9,701305389E0"
1399,"2,834734917E0","2,413355350E0","3,658340216E0"
1400,"2,681505919E0","3,485957623E0","8,743624687E0"
1401,"2,681505919E0","2,260126352E0","4,769249916E0"
1402,"5,363011956E-1","2,413355350E0","5,564124584E0"
1403,"6,052541733E0","1,953668594E0","1,193270111E1"
1404,"4,060565948E0","1,647210717E0","1,176989555E1"
1405,"4,367023945E0","3,179499865E0","1,352245140E1"
1406,"3,447650433E0","5,631162167E0","1,097502041E1"
1407,"3,600879431E0","4,405331135E0","1,065898609E1"
1408,"2,528276920E0","3,792415380E0","1,193270111E1"
1409,"2,528276920E0","3,332728863E0","9,701305389E0"
1410,"3,907337189E0","4,865017891E0","1,065898609E1"
1411,"2,068590164E0","4,252102375E0","6,837840080E0"
1412,"2,528276920E0","2,566584110E0","7,632715225E0"
1413,"3,754108191E0","2,106897593E0","8,427590370E0"
1414,"2,681505919E0","3,026270866E0","9,701305389E0"
1415,"3,447650433E0","1,034295082E0","9,385271072E0"
1416,"1,302445769E0","1,187524080E0","8,427590370E0"
1417,"5,363011956E-1","2,873042107E0","1,208592987E1"
1418,"1,455674648E0","6,856993675E0","7,795520782E0"
1419,"8,427590132E-1","1,800439715E0","8,743624687E0"
1420,"1,302445769E0","-4,979939461E-1","7,948749542E0"
1421,"3,907337189E0","-3,447650373E-1","1,113782597E1"
1422,"3,600879431E0","-3,830722719E-2","9,385271072E0"
1423,"2,068590164E0","-1,915361285E-1","7,795520782E0"
1424,"-3,830722570E-1","2,106897593E0","1,160709000E1"
1425,"7,661445439E-2","4,213795066E-1","1,018014526E1"
1426,"-3,830722570E-1","7,278373241E-1","8,906430244E0"
1427,"-6,895300746E-1","2,106897593E0","8,743624687E0"
1428,"-2,221819162E0","5,746083856E-1","8,590395927E0"
1429,"-1,455674648E0","-9,576807022E-1","9,538499832E0"
1430,"-1,915361404E0","1,340752959E0","9,864110947E0"
1431,"-1,762132406E0","2,106897593E0","9,222464561E0"
1432,"-2,068590164E0","2,260126352E0","9,069235802E0"
1433,"-1,915361404E0","1,647210717E0","9,222464561E0"
1434,"-2,528276920E0","1,647210717E0","9,222464561E0"
1435,"-3,830722570E-1","1,647210717E0","9,385271072E0"
1436,"-7,661445439E-2","1,647210717E0","9,538499832E0"
1437,"-1,302445769E0","1,953668594E0","9,385271072E0"
1438,"-5,363011956E-1","1,647210717E0","9,385271072E0"
1439,"-2,298433632E-1","8,810662031E-1","9,538499832E0"
1440,"-7,661445439E-2","1,187524080E0","1,001733971E1"
1441,"-9,959878922E-1","-4,979939461E-1","1,320641613E1"
1442,"-3,830722570E-1","5,746083856E-1","9,538499832E0"
1443,"-2,068590164E0","4,213795066E-1","9,222464561E0"
1444,"-5,363011956E-1","5,746083856E-1","9,538499832E0"
1445,"-8,427590132E-1","8,810662031E-1","9,069235802E0"
1446,"-6,895300746E-1","7,278373241E-1","9,538499832E0"
1447,"-3,830722570E-1","1,034295082E0","9,538499832E0"
1448,"7,661445439E-2","1,493981838E0","8,274360657E0"
1449,"6,895300746E-1","1,187524080E0","9,385271072E0"
1450,"9,959878922E-1","5,746083856E-1","9,701305389E0"
1451,"1,149216771E0","4,213795066E-1","9,701305389E0"
1452,"9,959878922E-1","5,746083856E-1","9,538499832E0"
1453,"9,959878922E-1","7,278373241E-1","9,701305389E0"
1454,"1,149216771E0","5,746083856E-1","9,538499832E0"
1455,"9,959878922E-1","7,278373241E-1","9,538499832E0"
1456,"1,302445769E0","7,278373241E-1","9,538499832E0"
1457,"1,302445769E0","8,810662031E-1","9,538499832E0"
1458,"1,302445769E0","8,810662031E-1","9,538499832E0"
1459,"9,959878922E-1","2,106897593E0","9,222464561E0"
1460,"8,427590132E-1","1,647210717E0","9,385271072E0"
1461,"9,959878922E-1","1,340752959E0","9,701305389E0"
1462,"5,363011956E-1","2,106897593E0","9,538499832E0"
1463,"-2,298433632E-1","3,179499865E0","9,538499832E0"
1464,"2,298433632E-1","2,413355350E0","9,222464561E0"
1465,"6,895300746E-1","2,413355350E0","9,222464561E0"
1466,"6,895300746E-1","2,413355350E0","9,222464561E0"
1467,"8,427590132E-1","2,413355350E0","9,222464561E0"
1468,"8,427590132E-1","2,413355350E0","9,222464561E0"
1469,"5,363011956E-1","2,413355350E0","9,222464561E0"
1470,"5,363011956E-1","2,413355350E0","9,222464561E0"
1471,"7,661445439E-2","2,413355350E0","9,222464561E0"
1472,"5,363011956E-1","2,260126352E0","9,222464561E0"
1473,"6,895300746E-1","1,647210717E0","9,701305389E0"
1474,"6,895300746E-1","1,953668594E0","9,222464561E0"
1475,"9,959878922E-1","1,493981838E0","9,701305389E0"
1476,"5,363011956E-1","1,800439715E0","9,385271072E0"
1477,"8,427590132E-1","2,413355350E0","9,222464561E0"
1478,"7,661445439E-2","3,639186621E0","9,222464561E0"
1479,"2,298433632E-1","1,647210717E0","9,385271072E0"
1480,"8,427590132E-1","-1,877054095E0","1,241154194E1"
1481,"7,661445439E-2","2,719813108E0","9,864110947E0"
1482,"3,830722570E-1","1,034295082E0","7,153874874E0"
1483,"1,149216771E0","-6,512228847E-1","9,538499832E0"
1484,"2,068590164E0","1,149216816E-1","1,097502041E1"
1485,"2,068590164E0","-3,830722719E-2","9,538499832E0"
1486,"2,375048161E0","-1,417367458E0","9,222464561E0"
1487,"2,528276920E0","-3,830722719E-2","7,153874874E0"
1488,"2,834734917E0","1,800439715E0","1,034295177E1"
1489,"2,068590164E0","1,647210717E0","8,427590370E0"
1490,"3,447650433E0","5,746083856E-1","9,538499832E0"
1491,"3,294421434E0","1,034295082E0","9,222464561E0"
1492,"2,987963676E0","1,149216816E-1","9,538499832E0"
1493,"4,213795185E0","-2,336740971E0","1,113782597E1"
1494,"-1,149216771E0","1,493981838E0","1,367568016E1"
1495,"2,298433632E-1","2,681505978E-1","9,701305389E0"
1496,"7,661445439E-2","2,681505978E-1","9,538499832E0"
1497,"-2,298433632E-1","4,213795066E-1","9,701305389E0"
1498,"7,661445439E-2","4,213795066E-1","9,701305389E0"
1499,"2,298433632E-1","2,681505978E-1","9,538499832E0"
1500,"7,661445439E-2","2,681505978E-1","9,701305389E0"
1501,"2,298433632E-1","1,149216816E-1","9,538499832E0"
1502,"2,298433632E-1","2,681505978E-1","9,538499832E0"
1503,"2,298433632E-1","2,681505978E-1","9,385271072E0"
1504,"7,661445439E-2","4,213795066E-1","9,701305389E0"
1505,"7,661445439E-2","2,681505978E-1","9,385271072E0"
1506,"7,661445439E-2","4,213795066E-1","9,538499832E0"
1507,"7,661445439E-2","2,681505978E-1","9,538499832E0"
1508,"7,661445439E-2","4,213795066E-1","9,538499832E0"
1509,"2,298433632E-1","2,681505978E-1","9,538499832E0"
1510,"7,661445439E-2","2,681505978E-1","9,538499832E0"
1511,"2,298433632E-1","4,213795066E-1","9,701305389E0"
1512,"7,661445439E-2","4,213795066E-1","9,538499832E0"
1513,"9,959878922E-1","5,746083856E-1","9,701305389E0"
1514,"7,661445439E-2","2,681505978E-1","9,701305389E0"
1515,"7,661445439E-2","2,681505978E-1","9,538499832E0"
1516,"3,830722570E-1","2,681505978E-1","9,701305389E0"
1517,"2,298433632E-1","2,681505978E-1","9,701305389E0"
1518,"2,298433632E-1","2,681505978E-1","9,538499832E0"
1519,"2,298433632E-1","4,213795066E-1","9,538499832E0"
1520,"2,298433632E-1","2,681505978E-1","9,538499832E0"
1521,"2,298433632E-1","4,213795066E-1","9,538499832E0"
1522,"7,661445439E-2","2,681505978E-1","9,701305389E0"
1523,"2,298433632E-1","2,681505978E-1","9,538499832E0"
1524,"7,661445439E-2","4,213795066E-1","9,538499832E0"
1525,"2,298433632E-1","4,213795066E-1","9,538499832E0"
1526,"2,298433632E-1","7,278373241E-1","9,701305389E0"
1527,"3,830722570E-1","2,681505978E-1","9,701305389E0"
1528,"2,298433632E-1","4,213795066E-1","9,538499832E0"
1529,"7,661445439E-2","2,681505978E-1","9,701305389E0"
1530,"2,298433632E-1","2,681505978E-1","9,701305389E0"
1531,"2,298433632E-1","2,681505978E-1","9,538499832E0"
1532,"2,298433632E-1","2,681505978E-1","9,701305389E0"
1533,"2,298433632E-1","2,681505978E-1","9,538499832E0"
1534,"2,298433632E-1","4,213795066E-1","9,701305389E0"
1535,"2,298433632E-1","4,213795066E-1","9,538499832E0"
1536,"2,298433632E-1","2,681505978E-1","9,538499832E0"
1537,"7,661445439E-2","4,213795066E-1","9,538499832E0"
1538,"2,298433632E-1","4,213795066E-1","9,385271072E0"
1539,"2,298433632E-1","2,681505978E-1","9,538499832E0"
1540,"2,298433632E-1","2,681505978E-1","9,538499832E0"
1541,"2,298433632E-1","2,681505978E-1","9,701305389E0"
1542,"2,298433632E-1","2,681505978E-1","9,538499832E0"
1543,"2,298433632E-1","2,681505978E-1","9,538499832E0"
1544,"2,298433632E-1","4,213795066E-1","9,701305389E0"
1545,"2,298433632E-1","4,213795066E-1","9,538499832E0"
1546,"2,298433632E-1","4,213795066E-1","9,701305389E0"
1547,"2,298433632E-1","2,681505978E-1","9,538499832E0"
1548,"2,298433632E-1","2,681505978E-1","9,538499832E0"
1549,"7,661445439E-2","2,681505978E-1","9,538499832E0"
1550,"2,298433632E-1","2,681505978E-1","9,701305389E0"
1551,"2,298433632E-1","2,681505978E-1","9,538499832E0"
1552,"2,298433632E-1","4,213795066E-1","9,701305389E0"
1553,"7,661445439E-2","2,681505978E-1","9,538499832E0"
1554,"2,298433632E-1","2,681505978E-1","9,385271072E0"
1555,"2,298433632E-1","2,681505978E-1","9,538499832E0"
1556,"3,830722570E-1","2,681505978E-1","9,701305389E0"
1557,"2,298433632E-1","2,681505978E-1","9,538499832E0"
1558,"2,298433632E-1","2,681505978E-1","9,538499832E0"
1559,"2,298433632E-1","4,213795066E-1","9,701305389E0"
1560,"2,298433632E-1","2,681505978E-1","9,538499832E0"
1561,"2,298433632E-1","2,681505978E-1","9,701305389E0"
1562,"2,298433632E-1","2,681505978E-1","9,538499832E0"
1563,"2,298433632E-1","2,681505978E-1","9,538499832E0"
1564,"7,661445439E-2","4,213795066E-1","9,538499832E0"
1565,"2,298433632E-1","2,681505978E-1","9,701305389E0"
1566,"2,298433632E-1","2,681505978E-1","9,538499832E0"
1567,"7,661445439E-2","2,681505978E-1","9,538499832E0"
1568,"3,830722570E-1","2,681505978E-1","9,538499832E0"
1569,"7,661445439E-2","2,681505978E-1","9,701305389E0"
1570,"2,298433632E-1","4,213795066E-1","9,538499832E0"
1571,"2,298433632E-1","2,681505978E-1","9,538499832E0"
1572,"2,298433632E-1","4,213795066E-1","9,701305389E0"
1573,"2,298433632E-1","5,746083856E-1","9,538499832E0"
1574,"2,298433632E-1","4,213795066E-1","9,538499832E0"
1575,"2,298433632E-1","4,213795066E-1","9,538499832E0"
1576,"2,298433632E-1","4,213795066E-1","9,538499832E0"
1577,"2,298433632E-1","4,213795066E-1","9,538499832E0"
1578,"7,661445439E-2","4,213795066E-1","9,538499832E0"
1579,"7,661445439E-2","5,746083856E-1","9,538499832E0"
1580,"2,298433632E-1","4,213795066E-1","9,538499832E0"
1581,"2,298433632E-1","4,213795066E-1","9,701305389E0"
1582,"2,298433632E-1","4,213795066E-1","9,538499832E0"
1583,"3,830722570E-1","5,746083856E-1","9,701305389E0"
1584,"2,298433632E-1","2,681505978E-1","9,538499832E0"
1585,"2,298433632E-1","4,213795066E-1","9,701305389E0"
1586,"7,661445439E-2","4,213795066E-1","9,701305389E0"
1587,"2,298433632E-1","5,746083856E-1","9,701305389E0"
1588,"2,298433632E-1","4,213795066E-1","9,538499832E0"
1589,"2,298433632E-1","4,213795066E-1","9,538499832E0"
1590,"2,298433632E-1","4,213795066E-1","9,538499832E0"
1591,"2,298433632E-1","2,681505978E-1","9,538499832E0"
1592,"7,661445439E-2","1,149216816E-1","9,701305389E0"
1593,"2,298433632E-1","2,681505978E-1","9,701305389E0"
1594,"2,298433632E-1","2,681505978E-1","9,538499832E0"
1595,"2,298433632E-1","2,681505978E-1","9,538499832E0"
1596,"2,298433632E-1","2,681505978E-1","9,538499832E0"
1597,"3,830722570E-1","4,213795066E-1","9,701305389E0"
1598,"2,298433632E-1","2,681505978E-1","9,538499832E0"
1599,"2,298433632E-1","2,681505978E-1","9,701305389E0"
1600,"2,298433632E-1","2,681505978E-1","9,538499832E0"
1601,"7,661445439E-2","2,681505978E-1","9,538499832E0"
1602,"3,830722570E-1","2,681505978E-1","9,701305389E0"
1603,"2,298433632E-1","2,681505978E-1","9,538499832E0"
1604,"3,830722570E-1","4,213795066E-1","9,701305389E0"
1605,"3,830722570E-1","2,681505978E-1","9,701305389E0"
1606,"2,298433632E-1","1,149216816E-1","9,538499832E0"
1607,"3,830722570E-1","2,681505978E-1","9,538499832E0"
1608,"3,830722570E-1","1,149216816E-1","9,538499832E0"
1609,"3,830722570E-1","2,681505978E-1","9,538499832E0"
1610,"3,830722570E-1","2,681505978E-1","9,701305389E0"
1611,"2,298433632E-1","2,681505978E-1","9,538499832E0"
1612,"3,830722570E-1","2,681505978E-1","9,538499832E0"
1613,"3,830722570E-1","2,681505978E-1","9,701305389E0"
1614,"2,298433632E-1","2,681505978E-1","9,701305389E0"
1615,"2,298433632E-1","2,681505978E-1","9,538499832E0"
1616,"2,298433632E-1","4,213795066E-1","9,701305389E0"
1617,"2,298433632E-1","2,681505978E-1","9,701305389E0"
1618,"3,830722570E-1","2,681505978E-1","9,538499832E0"
1619,"3,830722570E-1","2,681505978E-1","9,538499832E0"
1620,"3,830722570E-1","2,681505978E-1","9,701305389E0"
1621,"3,830722570E-1","2,681505978E-1","9,538499832E0"
1622,"2,298433632E-1","2,681505978E-1","9,538499832E0"
1623,"2,298433632E-1","2,681505978E-1","9,538499832E0"
1624,"3,830722570E-1","2,681505978E-1","9,538499832E0"
1625,"3,830722570E-1","2,681505978E-1","9,538499832E0"
1626,"2,298433632E-1","2,681505978E-1","9,538499832E0"
1627,"2,298433632E-1","2,681505978E-1","9,538499832E0"
1628,"3,830722570E-1","2,681505978E-1","9,701305389E0"
1629,"3,830722570E-1","2,681505978E-1","9,538499832E0"
1630,"3,830722570E-1","1,149216816E-1","9,701305389E0"
1631,"2,298433632E-1","2,681505978E-1","9,538499832E0"
1632,"2,298433632E-1","2,681505978E-1","9,701305389E0"
1633,"3,830722570E-1","2,681505978E-1","9,701305389E0"
1634,"3,830722570E-1","2,681505978E-1","9,538499832E0"
1635,"2,298433632E-1","4,213795066E-1","9,701305389E0"
1636,"3,830722570E-1","2,681505978E-1","9,701305389E0"
1637,"2,298433632E-1","1,149216816E-1","9,538499832E0"
1638,"3,830722570E-1","2,681505978E-1","9,538499832E0"
1639,"2,298433632E-1","2,681505978E-1","9,538499832E0"
1640,"3,830722570E-1","2,681505978E-1","9,538499832E0"
1641,"3,830722570E-1","2,681505978E-1","9,701305389E0"
1642,"3,830722570E-1","4,213795066E-1","9,701305389E0"
1643,"3,830722570E-1","2,681505978E-1","9,538499832E0"
1644,"2,298433632E-1","2,681505978E-1","9,701305389E0"
1645,"3,830722570E-1","2,681505978E-1","9,701305389E0"
1646,"2,298433632E-1","2,681505978E-1","9,538499832E0"
1647,"3,830722570E-1","2,681505978E-1","9,701305389E0"
1648,"2,298433632E-1","2,681505978E-1","9,538499832E0"
1649,"3,830722570E-1","4,213795066E-1","9,538499832E0"
1650,"3,830722570E-1","4,213795066E-1","9,538499832E0"
1651,"3,830722570E-1","2,681505978E-1","9,701305389E0"
1652,"3,830722570E-1","2,681505978E-1","9,701305389E0"
1653,"3,830722570E-1","2,681505978E-1","9,538499832E0"
1654,"3,830722570E-1","2,681505978E-1","9,538499832E0"
1655,"2,298433632E-1","2,681505978E-1","9,538499832E0"
1656,"3,830722570E-1","2,681505978E-1","9,538499832E0"
1657,"3,830722570E-1","2,681505978E-1","9,701305389E0"
1658,"2,298433632E-1","4,213795066E-1","9,701305389E0"
1659,"3,830722570E-1","4,213795066E-1","9,701305389E0"
1660,"3,830722570E-1","2,681505978E-1","9,538499832E0"
1661,"3,830722570E-1","4,213795066E-1","9,538499832E0"
1662,"3,830722570E-1","2,681505978E-1","9,538499832E0"
1663,"2,298433632E-1","2,681505978E-1","9,538499832E0"
1664,"3,830722570E-1","4,213795066E-1","9,538499832E0"
1665,"3,830722570E-1","4,213795066E-1","9,538499832E0"
1666,"3,830722570E-1","2,681505978E-1","9,538499832E0"
1667,"3,830722570E-1","2,681505978E-1","9,701305389E0"
1668,"3,830722570E-1","2,681505978E-1","9,538499832E0"
1669,"3,830722570E-1","4,213795066E-1","9,538499832E0"
1670,"2,298433632E-1","4,213795066E-1","9,538499832E0"
1671,"2,298433632E-1","4,213795066E-1","9,538499832E0"
1672,"3,830722570E-1","2,681505978E-1","9,701305389E0"
1673,"3,830722570E-1","2,681505978E-1","9,538499832E0"
1674,"3,830722570E-1","2,681505978E-1","9,701305389E0"
1675,"3,830722570E-1","4,213795066E-1","9,538499832E0"
1676,"3,830722570E-1","4,213795066E-1","9,538499832E0"
1677,"3,830722570E-1","4,213795066E-1","9,538499832E0"
1678,"2,298433632E-1","2,681505978E-1","9,538499832E0"
1679,"3,830722570E-1","4,213795066E-1","9,538499832E0"
1680,"3,830722570E-1","5,746083856E-1","9,538499832E0"
1681,"3,830722570E-1","4,213795066E-1","9,538499832E0"
1682,"3,830722570E-1","4,213795066E-1","9,538499832E0"
1683,"2,298433632E-1","2,681505978E-1","9,538499832E0"
1684,"2,298433632E-1","2,681505978E-1","9,538499832E0"
1685,"2,298433632E-1","2,681505978E-1","9,538499832E0"
1686,"3,830722570E-1","2,681505978E-1","9,538499832E0"
1687,"3,830722570E-1","2,681505978E-1","9,538499832E0"
1688,"3,830722570E-1","4,213795066E-1","9,538499832E0"
1689,"3,830722570E-1","2,681505978E-1","9,538499832E0"
1690,"3,830722570E-1","4,213795066E-1","9,538499832E0"
1691,"2,298433632E-1","2,681505978E-1","9,701305389E0"
1692,"3,830722570E-1","2,681505978E-1","9,538499832E0"
1693,"3,830722570E-1","2,681505978E-1","9,701305389E0"
1694,"2,298433632E-1","2,681505978E-1","9,538499832E0"
1695,"3,830722570E-1","4,213795066E-1","9,538499832E0"
1696,"3,830722570E-1","2,681505978E-1","9,538499832E0"
1697,"3,830722570E-1","2,681505978E-1","9,538499832E0"
1698,"3,830722570E-1","4,213795066E-1","9,538499832E0"
1699,"3,830722570E-1","2,681505978E-1","9,701305389E0"
1700,"3,830722570E-1","4,213795066E-1","9,538499832E0"
1701,"2,298433632E-1","2,681505978E-1","9,538499832E0"
1702,"3,830722570E-1","2,681505978E-1","9,538499832E0"
1703,"2,298433632E-1","2,681505978E-1","9,701305389E0"
1704,"3,830722570E-1","4,213795066E-1","9,538499832E0"
1705,"3,830722570E-1","2,681505978E-1","9,538499832E0"
1706,"3,830722570E-1","4,213795066E-1","9,701305389E0"
1707,"3,830722570E-1","2,681505978E-1","9,538499832E0"
1708,"3,830722570E-1","2,681505978E-1","9,538499832E0"
1709,"3,830722570E-1","2,681505978E-1","9,538499832E0"
1710,"2,298433632E-1","4,213795066E-1","9,538499832E0"
1711,"2,298433632E-1","4,213795066E-1","9,538499832E0"
1712,"3,830722570E-1","4,213795066E-1","9,538499832E0"
1713,"2,298433632E-1","4,213795066E-1","9,538499832E0"
1714,"5,363011956E-1","4,213795066E-1","9,701305389E0"
1715,"2,298433632E-1","2,681505978E-1","9,538499832E0"
1716,"2,298433632E-1","4,213795066E-1","9,538499832E0"
1717,"3,830722570E-1","4,213795066E-1","9,538499832E0"
1718,"3,830722570E-1","4,213795066E-1","9,538499832E0"
1719,"2,298433632E-1","2,681505978E-1","9,538499832E0"
1720,"2,298433632E-1","4,213795066E-1","9,538499832E0"
1721,"3,830722570E-1","4,213795066E-1","9,701305389E0"
1722,"3,830722570E-1","2,681505978E-1","9,538499832E0"
1723,"2,298433632E-1","2,681505978E-1","9,538499832E0"
1724,"2,298433632E-1","2,681505978E-1","9,538499832E0"
1725,"3,830722570E-1","2,681505978E-1","9,538499832E0"
1726,"2,298433632E-1","2,681505978E-1","9,538499832E0"
1727,"5,363011956E-1","2,681505978E-1","9,538499832E0"
1728,"3,830722570E-1","4,213795066E-1","9,538499832E0"
1729,"2,298433632E-1","4,213795066E-1","9,538499832E0"
1730,"3,830722570E-1","4,213795066E-1","9,538499832E0"
1731,"3,830722570E-1","4,213795066E-1","9,538499832E0"
1732,"2,298433632E-1","4,213795066E-1","9,538499832E0"
1733,"3,830722570E-1","4,213795066E-1","9,538499832E0"
1734,"3,830722570E-1","4,213795066E-1","9,701305389E0"
1735,"2,298433632E-1","4,213795066E-1","9,538499832E0"
1736,"3,830722570E-1","4,213795066E-1","9,701305389E0"
1737,"7,661445439E-2","2,681505978E-1","9,701305389E0"
1738,"3,830722570E-1","2,681505978E-1","9,701305389E0"
1739,"3,830722570E-1","2,681505978E-1","9,701305389E0"
1740,"3,830722570E-1","4,213795066E-1","9,538499832E0"
1741,"3,830722570E-1","2,681505978E-1","9,701305389E0"
1742,"3,830722570E-1","2,681505978E-1","9,538499832E0"
1743,"2,298433632E-1","4,213795066E-1","9,538499832E0"
1744,"3,830722570E-1","4,213795066E-1","9,538499832E0"
1745,"3,830722570E-1","5,746083856E-1","9,538499832E0"
1746,"3,830722570E-1","2,681505978E-1","9,538499832E0"
1747,"2,298433632E-1","2,681505978E-1","9,538499832E0"
1748,"3,830722570E-1","2,681505978E-1","9,538499832E0"
1749,"2,298433632E-1","4,213795066E-1","9,538499832E0"
1750,"3,830722570E-1","4,213795066E-1","9,538499832E0"
1751,"3,830722570E-1","4,213795066E-1","9,538499832E0"
1752,"3,830722570E-1","2,681505978E-1","9,538499832E0"
1753,"3,830722570E-1","2,681505978E-1","9,701305389E0"
1754,"2,298433632E-1","4,213795066E-1","9,701305389E0"
1755,"2,298433632E-1","4,213795066E-1","9,538499832E0"
1756,"3,830722570E-1","2,681505978E-1","9,701305389E0"
1757,"3,830722570E-1","2,681505978E-1","9,538499832E0"
1758,"3,830722570E-1","2,681505978E-1","9,538499832E0"
1759,"3,830722570E-1","4,213795066E-1","9,538499832E0"
1760,"3,830722570E-1","2,681505978E-1","9,701305389E0"
1761,"2,298433632E-1","2,681505978E-1","9,538499832E0"
1762,"3,830722570E-1","2,681505978E-1","9,538499832E0"
1763,"3,830722570E-1","2,681505978E-1","9,701305389E0"
1764,"3,830722570E-1","2,681505978E-1","9,538499832E0"
1765,"3,830722570E-1","4,213795066E-1","9,538499832E0"
1766,"3,830722570E-1","4,213795066E-1","9,701305389E0"
1767,"2,298433632E-1","2,681505978E-1","9,538499832E0"
1768,"2,298433632E-1","4,213795066E-1","9,538499832E0"
1769,"2,298433632E-1","2,681505978E-1","9,701305389E0"
1770,"3,830722570E-1","4,213795066E-1","9,538499832E0"
1771,"3,830722570E-1","2,681505978E-1","9,538499832E0"
1772,"3,830722570E-1","4,213795066E-1","9,701305389E0"
1773,"3,830722570E-1","2,681505978E-1","9,701305389E0"
1774,"3,830722570E-1","2,681505978E-1","9,538499832E0"
1775,"3,830722570E-1","4,213795066E-1","9,538499832E0"
1776,"3,830722570E-1","4,213795066E-1","9,538499832E0"
1777,"3,830722570E-1","2,681505978E-1","9,701305389E0"
1778,"2,298433632E-1","4,213795066E-1","9,701305389E0"
1779,"2,298433632E-1","2,681505978E-1","9,538499832E0"
1780,"2,298433632E-1","2,681505978E-1","9,538499832E0"
1781,"2,298433632E-1","2,681505978E-1","9,538499832E0"
1782,"3,830722570E-1","2,681505978E-1","9,538499832E0"
1783,"3,830722570E-1","2,681505978E-1","9,538499832E0"
1784,"3,830722570E-1","2,681505978E-1","9,538499832E0"
1785,"3,830722570E-1","4,213795066E-1","9,701305389E0"
1786,"2,298433632E-1","2,681505978E-1","9,538499832E0"
1787,"3,830722570E-1","2,681505978E-1","9,538499832E0"
1788,"3,830722570E-1","2,681505978E-1","9,538499832E0"
1789,"2,298433632E-1","4,213795066E-1","9,538499832E0"
1790,"2,298433632E-1","4,213795066E-1","9,538499832E0"
1791,"3,830722570E-1","2,681505978E-1","9,701305389E0"
1792,"2,298433632E-1","4,213795066E-1","9,538499832E0"
1793,"3,830722570E-1","4,213795066E-1","9,538499832E0"
1794,"3,830722570E-1","4,213795066E-1","9,538499832E0"
1795,"3,830722570E-1","4,213795066E-1","9,538499832E0"
1796,"3,830722570E-1","4,213795066E-1","9,538499832E0"
1797,"3,830722570E-1","4,213795066E-1","9,701305389E0"
1798,"2,298433632E-1","2,681505978E-1","9,701305389E0"
1799,"3,830722570E-1","2,681505978E-1","9,538499832E0"
1800,"3,830722570E-1","4,213795066E-1","9,538499832E0"
1801,"3,830722570E-1","4,213795066E-1","9,538499832E0"
1802,"3,830722570E-1","4,213795066E-1","9,701305389E0"
1803,"2,298433632E-1","4,213795066E-1","9,538499832E0"
1804,"3,830722570E-1","4,213795066E-1","9,701305389E0"
1805,"3,830722570E-1","4,213795066E-1","9,538499832E0"
1806,"3,830722570E-1","2,681505978E-1","9,538499832E0"
1807,"3,830722570E-1","4,213795066E-1","9,701305389E0"
1808,"3,830722570E-1","2,681505978E-1","9,538499832E0"
1809,"3,830722570E-1","4,213795066E-1","9,538499832E0"
1810,"3,830722570E-1","2,681505978E-1","9,701305389E0"
1811,"3,830722570E-1","4,213795066E-1","9,538499832E0"
1812,"3,830722570E-1","4,213795066E-1","9,538499832E0"
1813,"3,830722570E-1","2,681505978E-1","9,538499832E0"
1814,"3,830722570E-1","2,681505978E-1","9,701305389E0"
1815,"3,830722570E-1","4,213795066E-1","9,538499832E0"
1816,"3,830722570E-1","4,213795066E-1","9,701305389E0"
1817,"2,298433632E-1","4,213795066E-1","9,538499832E0"
1818,"3,830722570E-1","2,681505978E-1","9,538499832E0"
1819,"3,830722570E-1","2,681505978E-1","9,538499832E0"
1820,"3,830722570E-1","5,746083856E-1","9,701305389E0"
1821,"3,830722570E-1","4,213795066E-1","9,701305389E0"
1822,"2,298433632E-1","4,213795066E-1","9,538499832E0"
1823,"3,830722570E-1","2,681505978E-1","9,538499832E0"
1824,"7,661445439E-2","4,213795066E-1","9,538499832E0"
1825,"3,830722570E-1","4,213795066E-1","9,701305389E0"
1826,"3,830722570E-1","2,681505978E-1","9,701305389E0"
1827,"3,830722570E-1","4,213795066E-1","9,538499832E0"
1828,"5,363011956E-1","2,681505978E-1","9,538499832E0"
1829,"3,830722570E-1","4,213795066E-1","9,538499832E0"
1830,"3,830722570E-1","2,681505978E-1","9,701305389E0"
1831,"3,830722570E-1","4,213795066E-1","9,701305389E0"
1832,"3,830722570E-1","2,681505978E-1","9,538499832E0"
1833,"3,830722570E-1","2,681505978E-1","9,538499832E0"
1834,"3,830722570E-1","4,213795066E-1","9,538499832E0"
1835,"2,298433632E-1","4,213795066E-1","9,538499832E0"
1836,"2,298433632E-1","4,213795066E-1","9,538499832E0"
1837,"3,830722570E-1","4,213795066E-1","9,701305389E0"
1838,"2,298433632E-1","4,213795066E-1","9,701305389E0"
1839,"3,830722570E-1","2,681505978E-1","9,701305389E0"
1840,"3,830722570E-1","4,213795066E-1","9,538499832E0"
1841,"3,830722570E-1","4,213795066E-1","9,538499832E0"
1842,"3,830722570E-1","2,681505978E-1","9,538499832E0"
1843,"3,830722570E-1","4,213795066E-1","9,385271072E0"
1844,"3,830722570E-1","5,746083856E-1","9,538499832E0"
1845,"2,298433632E-1","2,681505978E-1","9,538499832E0"
1846,"2,298433632E-1","2,681505978E-1","9,538499832E0"
1847,"3,830722570E-1","4,213795066E-1","9,701305389E0"
1848,"2,298433632E-1","4,213795066E-1","9,538499832E0"
1849,"3,830722570E-1","2,681505978E-1","9,538499832E0"
1850,"3,830722570E-1","2,681505978E-1","9,538499832E0"
1851,"2,298433632E-1","4,213795066E-1","9,538499832E0"
1852,"3,830722570E-1","4,213795066E-1","9,538499832E0"
1853,"3,830722570E-1","4,213795066E-1","9,538499832E0"
1854,"3,830722570E-1","4,213795066E-1","9,538499832E0"
1855,"2,298433632E-1","4,213795066E-1","9,538499832E0"
1856,"3,830722570E-1","4,213795066E-1","9,538499832E0"
1857,"3,830722570E-1","4,213795066E-1","9,538499832E0"
1858,"2,298433632E-1","4,213795066E-1","9,538499832E0"
1859,"3,830722570E-1","4,213795066E-1","9,538499832E0"
1860,"3,830722570E-1","4,213795066E-1","9,701305389E0"
1861,"2,298433632E-1","4,213795066E-1","9,538499832E0"
1862,"3,830722570E-1","4,213795066E-1","9,538499832E0"
1863,"2,298433632E-1","4,213795066E-1","9,538499832E0"
1864,"3,830722570E-1","2,681505978E-1","9,701305389E0"
1865,"3,830722570E-1","4,213795066E-1","9,701305389E0"
1866,"3,830722570E-1","4,213795066E-1","9,538499832E0"
1867,"3,830722570E-1","4,213795066E-1","9,538499832E0"
1868,"3,830722570E-1","2,681505978E-1","9,538499832E0"
1869,"3,830722570E-1","2,681505978E-1","9,538499832E0"
1870,"3,830722570E-1","4,213795066E-1","9,538499832E0"
1871,"3,830722570E-1","4,213795066E-1","9,701305389E0"
1872,"2,298433632E-1","4,213795066E-1","9,538499832E0"
1873,"2,298433632E-1","4,213795066E-1","9,538499832E0"
1874,"3,830722570E-1","4,213795066E-1","9,538499832E0"
1875,"3,830722570E-1","4,213795066E-1","9,538499832E0"
1876,"3,830722570E-1","4,213795066E-1","9,701305389E0"
1877,"3,830722570E-1","4,213795066E-1","9,538499832E0"
1878,"2,298433632E-1","4,213795066E-1","9,538499832E0"
1879,"3,830722570E-1","4,213795066E-1","9,538499832E0"
1880,"3,830722570E-1","4,213795066E-1","9,701305389E0"
1881,"2,298433632E-1","4,213795066E-1","9,701305389E0"
1882,"3,830722570E-1","4,213795066E-1","9,701305389E0"
1883,"3,830722570E-1","5,746083856E-1","9,538499832E0"
1884,"2,298433632E-1","4,213795066E-1","9,538499832E0"
1885,"3,830722570E-1","4,213795066E-1","9,701305389E0"
1886,"3,830722570E-1","4,213795066E-1","9,538499832E0"
1887,"2,298433632E-1","4,213795066E-1","9,701305389E0"
1888,"2,298433632E-1","4,213795066E-1","9,538499832E0"
1889,"2,298433632E-1","4,213795066E-1","9,538499832E0"
1890,"2,298433632E-1","4,213795066E-1","9,538499832E0"
1891,"3,830722570E-1","4,213795066E-1","9,538499832E0"
1892,"3,830722570E-1","2,681505978E-1","9,538499832E0"
1893,"2,298433632E-1","4,213795066E-1","9,538499832E0"
1894,"3,830722570E-1","4,213795066E-1","9,538499832E0"
1895,"3,830722570E-1","2,681505978E-1","9,538499832E0"
1896,"3,830722570E-1","4,213795066E-1","9,701305389E0"
1897,"2,298433632E-1","2,681505978E-1","9,538499832E0"
1898,"3,830722570E-1","4,213795066E-1","9,538499832E0"
1899,"3,830722570E-1","2,681505978E-1","9,701305389E0"
1900,"-1,149216771E0","3,485957623E0","5,880159378E0"
1901,"2,298433632E-1","-2,183511972E0","9,385271072E0"
1902,"1,608903527E0","-9,576807022E-1","9,385271072E0"
1903,"3,294421434E0","-1,915361285E-1","9,701305389E0"
1904,"2,375048161E0","1,953668594E0","9,222464561E0"
1905,"2,528276920E0","5,171475887E0","7,795520782E0"
1906,"2,528276920E0","6,550535679E0","7,469909191E0"
1907,"2,681505919E0","1,953668594E0","1,288080502E1"
1908,"6,895300746E-1","3,945644379E0","8,906430244E0"
1909,"7,661445439E-2","1,800439715E0","9,701305389E0"
1910,"9,959878922E-1","3,792415380E0","7,316680431E0"
1911,"6,895300746E-1","6,090848923E0","7,153874874E0"
1912,"-9,959878922E-1","5,784391403E0","7,316680431E0"
1913,"-1,915361404E0","5,018246651E0","7,795520782E0"
1914,"-3,141192675E0","6,090848923E0","6,675034523E0"
1915,"-3,830722570E-1","4,405331135E0","8,274360657E0"
1916,"-2,528276920E0","1,647210717E0","9,222464561E0"
1917,"1,455674648E0","3,179499865E0","7,000645638E0"
1918,"2,221819162E0","1,340752959E0","7,316680431E0"
1919,"8,427590132E-1","1,800439715E0","8,590395927E0"
1920,"1,302445769E0","1,953668594E0","1,176989555E1"
1921,"-2,375048161E0","4,098873138E0","1,145386124E1"
1922,"-2,221819162E0","3,332728863E0","1,145386124E1"
1923,"-2,221819162E0","3,179499865E0","8,906430244E0"
1924,"-1,455674648E0","3,945644379E0","7,469909191E0"
1925,"7,661445439E-2","4,405331135E0","5,726930618E0"
1926,"9,959878922E-1","2,106897593E0","8,427590370E0"
1927,"5,363011956E-1","3,179499865E0","1,001733971E1"
1928,"-6,895300746E-1","2,566584110E0","1,018014526E1"
1929,"5,363011956E-1","2,719813108E0","1,001733971E1"
1930,"-3,830722570E-1","2,719813108E0","8,427590370E0"
1931,"-2,068590164E0","7,316680431E0","7,000645638E0"
1932,"3,830722570E-1","3,026270866E0","8,906430244E0"
1933,"6,895300746E-1","3,179499865E0","9,222464561E0"
1934,"9,959878922E-1","2,566584110E0","7,316680431E0"
1935,"1,149216771E0","-3,830722719E-2","1,367568016E1"
1936,"-2,068590164E0","2,681505978E-1","1,018014526E1"
1937,"-1,302445769E0","1,187524080E0","1,018014526E1"
1938,"6,895300746E-1","1,034295082E0","8,590395927E0"
1939,"-8,427590132E-1","3,179499865E0","9,222464561E0"
1940,"1,149216771E0","5,784391403E0","9,222464561E0"
1941,"2,834734917E0","1,647210717E0","1,001733971E1"
1942,"1,762132406E0","-1,264138460E0","1,034295177E1"
1943,"1,455674648E0","7,278373241E-1","9,069235802E0"
1944,"3,830722570E-1","3,332728863E0","6,837840080E0"
1945,"2,298433632E-1","5,937620163E0","1,113782597E1"
1946,"4,060565948E0","3,485957623E0","9,864110947E0"
1947,"2,528276920E0","1,187524080E0","9,538499832E0"
1948,"1,915361404E0","1,493981838E0","6,521805286E0"
1949,"6,895300746E-1","7,278373241E-1","5,726930618E0"
1950,"-5,363011956E-1","1,149216816E-1","7,948749542E0"
1951,"-2,298433632E-1","-1,723825216E0","1,208592987E1"
1952,"-2,528276920E0","1,800439715E0","1,081221485E1"
1953,"-1,149216771E0","1,340752959E0","9,538499832E0"
1954,"8,427590132E-1","2,106897593E0","7,153874874E0"
1955,"-5,363011956E-1","1,149216816E-1","9,864110947E0"
1956,"-7,661445439E-2","4,213795066E-1","1,049618053E1"
1957,"2,298433632E-1","8,810662031E-1","1,049618053E1"
1958,"-3,830722570E-1","1,034295082E0","8,906430244E0"
1959,"-5,363011956E-1","4,213795066E-1","5,564124584E0"
1960,"-1,302445769E0","1,149216816E-1","8,427590370E0"
1961,"-6,895300746E-1","8,810662031E-1","1,352245140E1"
1962,"-1,915361404E0","1,800439715E0","1,001733971E1"
1963,"-7,661445439E-2","1,493981838E0","7,795520782E0"
1964,"-2,298433632E-1","2,413355350E0","1,018014526E1"
1965,"2,528276920E0","2,719813108E0","1,001733971E1"
1966,"9,959878922E-1","1,034295082E0","7,632715225E0"
1967,"-7,661445439E-2","-6,512228847E-1","7,153874874E0"
1968,"-1,762132406E0","-3,102885485E0","1,113782597E1"
1969,"-8,427590132E-1","-6,512228847E-1","1,241154194E1"
1970,"7,661445439E-2","1,034295082E0","7,153874874E0"
1971,"-2,298433632E-1","2,681505978E-1","9,069235802E0"
1972,"1,302445769E0","-1,264138460E0","1,081221485E1"
1973,"-7,661445439E-2","-3,830722719E-2","7,795520782E0"
1974,"-1,455674648E0","-6,512228847E-1","8,111555099E0"
1975,"-1,762132406E0","-1,915361285E-1","1,049618053E1"
1976,"-1,608903527E0","2,681505978E-1","9,864110947E0"
1977,"-2,681505919E0","-1,570596337E0","9,701305389E0"
1978,"-6,895300746E-1","-8,044517636E-1","1,018014526E1"
1979,"-3,830722570E-1","-1,110909581E0","7,153874874E0"
1980,"1,455674648E0","-3,102885485E0","1,113782597E1"
1981,"-7,661445439E-2","-4,979939461E-1","9,385271072E0"
1982,"-2,221819162E0","2,681505978E-1","9,701305389E0"
1983,"-2,834734917E0","7,278373241E-1","8,427590370E0"
1984,"-3,754108191E0","-1,264138460E0","8,274360657E0"
1985,"-2,298433632E-1","1,493981838E0","1,049618053E1"
1986,"6,895300746E-1","4,098873138E0","7,153874874E0"
1987,"-7,661445439E-2","4,213795066E-1","1,018014526E1"
1988,"1,455674648E0","2,681505978E-1","1,065898609E1"
1989,"-5,363011956E-1","-3,830722719E-2","8,590395927E0"
1990,"-1,149216771E0","7,278373241E-1","1,097502041E1"
1991,"-1,302445769E0","-3,830722719E-2","9,538499832E0"
1992,"-6,895300746E-1","5,746083856E-1","9,701305389E0"
1993,"-5,363011956E-1","-6,512228847E-1","1,160709000E1"
1994,"2,528276920E0","7,278373241E-1","7,000645638E0"
1995,"2,375048161E0","7,278373241E-1","9,701305389E0"
1996,"2,068590164E0","5,324704647E0","9,701305389E0"
1997,"1,762132406E0","1,800439715E0","7,153874874E0"
1998,"5,363011956E-1","1,493981838E0","1,049618053E1"
1999,"9,959878922E-1","8,810662031E-1","9,538499832E0"
2000,"7,661445439E-2","1,149216816E-1","8,274360657E0"
2001,"3,830722570E-1","2,873042107E0","1,049618053E1"
2002,"1,149216771E0","1,953668594E0","6,521805286E0"
2003,"-8,427590132E-1","1,800439715E0","1,049618053E1"
2004,"1,149216771E0","2,719813108E0","9,385271072E0"
2005,"5,363011956E-1","2,719813108E0","8,590395927E0"
2006,"5,363011956E-1","2,719813108E0","7,948749542E0"
2007,"9,959878922E-1","2,873042107E0","1,129105568E1"
2008,"-1,149216771E0","1,953668594E0","8,906430244E0"
2009,"3,830722570E-1","1,340752959E0","7,632715225E0"
2010,"5,363011956E-1","1,034295082E0","1,065898609E1"
2011,"4,060565948E0","-6,512228847E-1","1,208592987E1"
2012,"2,298433632E-1","-6,512228847E-1","6,837840080E0"
2013,"6,895300746E-1","8,810662031E-1","8,906430244E0"
2014,"1,455674648E0","1,800439715E0","8,590395927E0"
2015,"2,528276920E0","5,746083856E-1","8,427590370E0"
2016,"-5,363011956E-1","7,278373241E-1","7,000645638E0"
2017,"-8,427590132E-1","1,340752959E0","1,193270111E1"
2018,"-8,427590132E-1","1,187524080E0","8,274360657E0"
2019,"9,959878922E-1","3,332728863E0","9,864110947E0"
2020,"-2,298433632E-1","8,810662031E-1","9,385271072E0"
2021,"6,895300746E-1","2,260126352E0","1,241154194E1"
2022,"1,302445769E0","1,953668594E0","1,113782597E1"
2023,"9,959878922E-1","2,106897593E0","8,906430244E0"
2024,"9,959878922E-1","1,034295082E0","9,069235802E0"
2025,"1,608903527E0","1,187524080E0","9,538499832E0"
2026,"6,895300746E-1","-4,979939461E-1","9,538499832E0"
2027,"6,895300746E-1","1,800439715E0","7,469909191E0"
2028,"6,895300746E-1","4,558559895E0","8,111555099E0"
2029,"6,895300746E-1","1,340752959E0","9,385271072E0"
2030,"-2,298433632E-1","2,719813108E0","1,176989555E1"
2031,"3,830722570E-1","8,810662031E-1","9,222464561E0"
2032,"2,298433632E-1","2,106897593E0","9,385271072E0"
2033,"-1,149216771E0","1,149216816E-1","7,469909191E0"
2034,"-1,302445769E0","1,149216816E-1","8,274360657E0"
2035,"-1,455674648E0","2,106897593E0","9,864110947E0"
2036,"-7,661445439E-2","1,493981838E0","6,521805286E0"
2037,"-9,959878922E-1","8,810662031E-1","1,049618053E1"
2038,"3,830722570E-1","1,800439715E0","1,001733971E1"
2039,"-6,895300746E-1","2,413355350E0","7,316680431E0"
2040,"-8,427590132E-1","1,034295082E0","7,469909191E0"
2041,"-3,830722570E-1","2,719813108E0","1,176989555E1"
2042,"-6,895300746E-1","1,647210717E0","9,385271072E0"
2043,"2,298433632E-1","1,187524080E0","8,274360657E0"
2044,"-6,895300746E-1","1,800439715E0","1,034295177E1"
2045,"3,830722570E-1","2,566584110E0","9,538499832E0"
2046,"-2,298433632E-1","1,647210717E0","9,538499832E0"
2047,"7,661445439E-2","1,149216816E-1","1,574427032E1"
2048,"-6,895300746E-1","1,800439715E0","9,385271072E0"
2049,"-2,298433632E-1","5,746083856E-1","9,222464561E0"
2050,"7,661445439E-2","1,953668594E0","1,034295177E1"
2051,"2,298433632E-1","1,340752959E0","9,222464561E0"
2052,"-1,149216771E0","1,034295082E0","7,316680431E0"
2053,"-1,302445769E0","2,566584110E0","1,097502041E1"
2054,"-8,427590132E-1","1,800439715E0","7,948749542E0"
2055,"-7,661445439E-2","1,034295082E0","9,864110947E0"
2056,"8,427590132E-1","2,566584110E0","9,069235802E0"
2057,"5,363011956E-1","1,493981838E0","6,521805286E0"
2058,"-9,959878922E-1","1,187524080E0","8,427590370E0"
2059,"-1,762132406E0","2,106897593E0","1,001733971E1"
2060,"7,661445439E-2","1,034295082E0","8,590395927E0"
2061,"7,661445439E-2","2,106897593E0","9,385271072E0"
2062,"-5,363011956E-1","-3,830722719E-2","9,864110947E0"
2063,"2,298433632E-1","3,026270866E0","1,160709000E1"
2064,"9,959878922E-1","5,631162167E0","8,427590370E0"
2065,"8,427590132E-1","1,187524080E0","6,837840080E0"
2066,"-2,298433632E-1","8,810662031E-1","1,241154194E1"
2067,"1,302445769E0","1,647210717E0","8,906430244E0"
2068,"-1,302445769E0","7,278373241E-1","9,538499832E0"
2069,"-3,830722570E-1","2,413355350E0","1,034295177E1"
2070,"9,959878922E-1","5,477933407E0","7,632715225E0"
2071,"1,302445769E0","2,681505978E-1","1,176989555E1"
2072,"1,302445769E0","2,413355350E0","9,538499832E0"
2073,"3,830722570E-1","1,800439715E0","9,538499832E0"
2074,"7,661445439E-2","1,187524080E0","8,274360657E0"
2075,"1,455674648E0","1,493981838E0","9,538499832E0"
2076,"2,068590164E0","1,187524080E0","1,034295177E1"
2077,"-1,302445769E0","1,149216816E-1","8,427590370E0"
2078,"-6,895300746E-1","1,493981838E0","9,864110947E0"
2079,"-9,959878922E-1","1,647210717E0","1,160709000E1"
2080,"6,895300746E-1","2,106897593E0","9,222464561E0"
2081,"-3,830722570E-1","1,034295082E0","7,153874874E0"
2082,"-2,298433632E-1","2,413355350E0","1,049618053E1"
2083,"1,149216771E0","2,260126352E0","8,274360657E0"
2084,"2,298433632E-1","1,647210717E0","8,274360657E0"
2085,"1,915361404E0","2,106897593E0","8,906430244E0"
2086,"-8,427590132E-1","1,647210717E0","7,316680431E0"
2087,"-7,661445439E-2","2,413355350E0","1,176989555E1"
2088,"-3,830722570E-1","2,106897593E0","7,469909191E0"
2089,"-5,363011956E-1","1,953668594E0","9,864110947E0"
2090,"5,363011956E-1","3,026270866E0","8,111555099E0"
2091,"2,298433632E-1","1,647210717E0","8,111555099E0"
2092,"-8,427590132E-1","1,340752959E0","6,837840080E0"
2093,"-2,068590164E0","2,413355350E0","1,034295177E1"
2094,"-1,608903527E0","2,413355350E0","8,427590370E0"
2095,"-2,298433632E-1","1,340752959E0","9,069235802E0"
2096,"-3,830722570E-1","1,647210717E0","9,864110947E0"
2097,"1,302445769E0","4,213795066E-1","1,352245140E1"
2098,"3,830722570E-1","8,810662031E-1","9,701305389E0"
2099,"-6,895300746E-1","1,493981838E0","8,590395927E0"
2100,"-7,661445439E-2","8,810662031E-1","7,632715225E0"
2101,"1,762132406E0","1,187524080E0","1,113782597E1"
2102,"3,830722570E-1","-4,979939461E-1","1,193270111E1"
2103,"-3,141192675E0","5,746083856E-1","1,193270111E1"
2104,"-5,363011956E-1","1,187524080E0","8,743624687E0"
2105,"7,661445439E-2","1,340752959E0","1,145386124E1"
2106,"1,149216771E0","1,953668594E0","9,222464561E0"
2107,"2,834734917E0","2,681505978E-1","1,256477070E1"
2108,"2,221819162E0","7,278373241E-1","9,069235802E0"
2109,"1,149216771E0","2,106897593E0","8,427590370E0"
2110,"2,528276920E0","2,260126352E0","8,906430244E0"
2111,"2,375048161E0","1,647210717E0","9,538499832E0"
2112,"6,895300746E-1","2,413355350E0","1,097502041E1"
2113,"-1,149216771E0","3,485957623E0","7,153874874E0"
2114,"-1,762132406E0","7,278373241E-1","7,795520782E0"
2115,"-2,375048161E0","7,278373241E-1","8,590395927E0"
2116,"-2,528276920E0","2,566584110E0","1,049618053E1"
2117,"-2,068590164E0","1,493981838E0","9,069235802E0"
2118,"-5,363011956E-1","1,953668594E0","7,632715225E0"
2119,"-1,915361404E0","5,746083856E-1","1,065898609E1"
2120,"1,455674648E0","2,413355350E0","9,222464561E0"
2121,"6,895300746E-1","-4,979939461E-1","1,160709000E1"
2122,"-7,661445439E-2","1,149216816E-1","8,590395927E0"
2123,"-8,427590132E-1","-3,830722719E-2","6,837840080E0"
2124,"-8,427590132E-1","1,187524080E0","1,113782597E1"
2125,"-3,830722570E-1","5,746083856E-1","6,837840080E0"
2126,"9,959878922E-1","1,493981838E0","1,049618053E1"
2127,"-1,302445769E0","-6,512228847E-1","7,632715225E0"
2128,"-2,528276920E0","4,213795066E-1","8,427590370E0"
2129,"-1,915361404E0","1,149216816E-1","1,065898609E1"
2130,"-2,298433632E-1","-1,110909581E0","9,701305389E0"
2131,"1,915361404E0","2,681505978E-1","9,069235802E0"
2132,"1,302445769E0","2,681505978E-1","1,049618053E1"
2133,"-7,661445439E-2","1,493981838E0","9,701305389E0"
2134,"1,149216771E0","2,413355350E0","8,111555099E0"
2135,"5,363011956E-1","4,252102375E0","5,564124584E0"
2136,"3,830722570E-1","1,953668594E0","5,564124584E0"
2137,"-1,762132406E0","2,873042107E0","7,469909191E0"
2138,"-1,302445769E0","3,332728863E0","1,749682617E1"
2139,"-2,375048161E0","4,405331135E0","8,111555099E0"
2140,"5,363011956E-1","2,413355350E0","6,675034523E0"
2141,"1,302445769E0","2,413355350E0","8,906430244E0"
2142,"2,298433632E-1","2,566584110E0","1,034295177E1"
2143,"1,762132406E0","8,810662031E-1","6,837840080E0"
2144,"9,959878922E-1","2,719813108E0","8,274360657E0"
2145,"3,830722570E-1","3,945644379E0","5,880159378E0"
2146,"7,661445439E-2","2,260126352E0","7,153874874E0"
2147,"-2,298433632E-1","2,719813108E0","7,153874874E0"
2148,"-9,959878922E-1","3,332728863E0","1,765963173E1"
2149,"7,661445439E-2","2,873042107E0","1,542823601E1"
2150,"-2,834734917E0","5,477933407E0","9,069235802E0"
2151,"7,661445439E-2","4,865017891E0","8,111555099E0"
2152,"3,830722570E-1","2,873042107E0","6,837840080E0"
2153,"2,298433632E-1","2,566584110E0","8,274360657E0"
2154,"-2,298433632E-1","2,260126352E0","1,065898609E1"
2155,"1,149216771E0","3,945644379E0","7,948749542E0"
2156,"5,363011956E-1","2,719813108E0","1,001733971E1"
2157,"-9,959878922E-1","7,278373241E-1","7,632715225E0"
2158,"5,363011956E-1","1,647210717E0","1,001733971E1"
2159,"6,895300746E-1","2,106897593E0","8,427590370E0"
2160,"1,608903527E0","5,746083856E-1","1,034295177E1"
2161,"5,363011956E-1","2,260126352E0","5,880159378E0"
2162,"1,302445769E0","4,405331135E0","1,001733971E1"
2163,"2,375048161E0","3,485957623E0","9,385271072E0"
2164,"2,068590164E0","3,792415380E0","7,153874874E0"
2165,"1,762132406E0","3,026270866E0","8,427590370E0"
2166,"1,455674648E0","3,026270866E0","7,153874874E0"
2167,"5,363011956E-1","5,018246651E0","3,332728863E0"
2168,"3,447650433E0","3,792415380E0","1,224873543E1"
2169,"2,834734917E0","3,179499865E0","8,743624687E0"
2170,"1,149216771E0","4,865017891E0","1,001733971E1"
2171,"2,221819162E0","3,332728863E0","8,906430244E0"
2172,"2,221819162E0","2,719813108E0","7,316680431E0"
2173,"1,762132406E0","1,149216816E-1","8,111555099E0"
2174,"5,363011956E-1","2,719813108E0","8,111555099E0"
2175,"-7,661445439E-2","2,873042107E0","5,564124584E0"
2176,"1,455674648E0","3,332728863E0","8,111555099E0"
2177,"2,068590164E0","1,800439715E0","1,288080502E1"
2178,"5,363011956E-1","3,639186621E0","1,208592987E1"
2179,"-8,427590132E-1","2,260126352E0","1,272757626E1"
2180,"-6,895300746E-1","4,558559895E0","1,065898609E1"
2181,"-9,959878922E-1","4,558559895E0","9,069235802E0"
2182,"8,427590132E-1","1,953668594E0","6,675034523E0"
2183,"8,427590132E-1","4,711789131E0","7,948749542E0"
2184,"1,302445769E0","5,937620163E0","1,049618053E1"
2185,"2,375048161E0","4,252102375E0","1,113782597E1"
2186,"6,895300746E-1","3,792415380E0","6,837840080E0"
2187,"-2,298433632E-1","2,260126352E0","8,274360657E0"
2188,"-9,959878922E-1","1,800439715E0","1,654872131E1"
2189,"-9,959878922E-1","5,171475887E0","8,590395927E0"
2190,"-6,895300746E-1","2,106897593E0","9,538499832E0"
2191,"-1,455674648E0","2,873042107E0","1,145386124E1"
2192,"5,363011956E-1","3,485957623E0","8,590395927E0"
2193,"-1,302445769E0","1,800439715E0","6,675034523E0"
2194,"-2,221819162E0","2,566584110E0","1,081221485E1"
2195,"-3,600879431E0","2,719813108E0","8,274360657E0"
2196,"-2,221819162E0","1,340752959E0","1,176989555E1"
2197,"-1,149216771E0","2,719813108E0","8,590395927E0"
2198,"1,302445769E0","1,149216816E-1","1,288080502E1"
2199,"5,363011956E-1","1,340752959E0","8,274360657E0"
2200,"2,298433632E-1","1,149216816E-1","1,431732655E1"
2201,"9,959878922E-1","1,187524080E0","9,701305389E0"
2202,"1,915361404E0","4,405331135E0","8,274360657E0"
2203,"6,205770969E0","8,810662031E-1","1,670195198E1"
2204,"7,278373241E0","7,278373241E-1","6,675034523E0"
2205,"3,907337189E0","-1,110909581E0","8,743624687E0"
2206,"1,149216771E0","5,171475887E0","9,385271072E0"
2207,"9,959878922E-1","5,171475887E0","8,590395927E0"
2208,"1,302445769E0","5,171475887E0","8,427590370E0"
2209,"-7,661445439E-2","5,937620163E0","8,111555099E0"
2210,"2,681505919E0","-3,830722719E-2","9,222464561E0"
2211,"3,830722570E-1","2,681505978E-1","9,385271072E0"
2212,"3,830722570E-1","2,681505978E-1","9,538499832E0"
2213,"3,830722570E-1","2,681505978E-1","9,385271072E0"
2214,"3,830722570E-1","4,213795066E-1","9,538499832E0"
2215,"3,830722570E-1","2,681505978E-1","9,701305389E0"
2216,"2,298433632E-1","2,681505978E-1","9,701305389E0"
2217,"3,830722570E-1","1,149216816E-1","9,538499832E0"
2218,"3,830722570E-1","2,681505978E-1","9,701305389E0"
2219,"3,830722570E-1","2,681505978E-1","9,538499832E0"
2220,"3,830722570E-1","2,681505978E-1","9,701305389E0"
2221,"3,830722570E-1","1,149216816E-1","9,538499832E0"
2222,"3,830722570E-1","2,681505978E-1","9,538499832E0"
2223,"2,298433632E-1","2,681505978E-1","9,538499832E0"
2224,"3,830722570E-1","2,681505978E-1","9,538499832E0"
2225,"3,830722570E-1","2,681505978E-1","9,538499832E0"
