"Time (s),Acceleration x (m/s^2),Acceleration y (m/s^2),Acceleration z (m/s^2)",Time (s)
"0,""-2,298433632E-1"",""4,098873138E0"",""7,948749542E0""",0
"1,""2,298433632E-1"",""1,953668594E0"",""1,193270111E1""",1
"2,""3,830722570E-1"",""4,213795066E-1"",""9,538499832E0""",2
"3,""1,149216771E0"",""3,639186621E0"",""1,034295177E1""",3
"4,""-7,661445439E-2"",""3,945644379E0"",""9,069235802E0""",4
"5,""-8,427590132E-1"",""3,792415380E0"",""9,385271072E0""",5
"6,""3,830722570E-1"",""4,252102375E0"",""8,743624687E0""",6
"7,""-2,068590164E0"",""4,098873138E0"",""9,069235802E0""",7
"8,""-3,141192675E0"",""4,558559895E0"",""8,111555099E0""",8
"9,""-5,363011956E-1"",""3,332728863E0"",""9,069235802E0""",9
"10,""7,661445439E-2"",""5,018246651E0"",""9,069235802E0""",10
"11,""1,149216771E0"",""7,278373241E-1"",""1,479616642E1""",11
"12,""-6,895300746E-1"",""1,647210717E0"",""6,837840080E0""",12
"13,""-3,907337189E0"",""-4,635174274E0"",""8,427590370E0""",13
"14,""-2,528276920E0"",""5,746083856E-1"",""9,701305389E0""",14
"15,""-2,375048161E0"",""4,213795066E-1"",""9,864110947E0""",15
"16,""-3,141192675E0"",""2,106897593E0"",""7,316680431E0""",16
"17,""-4,060565948E0"",""3,792415380E0"",""6,358999729E0""",17
"18,""-4,520252705E0"",""3,179499865E0"",""6,042964935E0""",18
"19,""-2,221819162E0"",""-5,248090267E0"",""1,049618053E1""",19
"20,""-2,987963676E0"",""-1,076433086E1"",""-4,932055473E0""",20
"21,""-9,270348549E0"",""-4,481945515E0"",""-7,948749542E0""",21
"22,""-9,576807022E0"",""-4,979939461E-1"",""-3,332728863E0""",22
"23,""-7,738059998E0"",""-1,723825216E0"",""-1,905784607E0""",23
"24,""-8,963891029E0"",""-3,830722719E-2"",""-6,042964935E0""",24
"25,""-7,125144482E0"",""7,278373241E-1"",""-4,453215122E0""",25
"26,""-5,899312973E0"",""4,865017891E0"",""-5,401319027E0""",26
"27,""-7,891288757E0"",""3,485957623E0"",""-6,042964935E0""",27
"28,""-9,270348549E0"",""1,034295082E0"",""-4,769249916E0""",28
"29,""-9,117119789E0"",""2,681505978E-1"",""-5,564124584E0""",29
"30,""-5,133168221E0"",""2,681505978E-1"",""-2,221819162E0""",30
"31,""-6,358999729E0"",""-1,110909581E0"",""6,358999729E0""",31
"32,""-3,830722570E-1"",""5,477933407E0"",""7,000645638E0""",32
"33,""5,363011956E-1"",""1,800439715E0"",""1,049618053E1""",33
"34,""-2,068590164E0"",""1,493981838E0"",""8,743624687E0""",34
"35,""-1,302445769E0"",""4,711789131E0"",""7,948749542E0""",35
"36,""-2,298433632E-1"",""7,316680431E0"",""7,469909191E0""",36
"37,""6,895300746E-1"",""5,171475887E0"",""7,000645638E0""",37
"38,""7,661445439E-2"",""2,566584110E0"",""3,974374771E0""",38
"39,""-3,754108191E0"",""3,639186621E0"",""7,000645638E0""",39
"40,""-1,762132406E0"",""4,252102375E0"",""5,401319027E0""",40
"41,""-1,915361404E0"",""3,639186621E0"",""8,427590370E0""",41
"42,""8,427590132E-1"",""6,090848923E0"",""7,153874874E0""",42
"43,""-8,427590132E-1"",""5,018246651E0"",""7,795520782E0""",43
"44,""-1,149216771E0"",""3,639186621E0"",""8,111555099E0""",44
"45,""-6,895300746E-1"",""5,631162167E0"",""9,069235802E0""",45
"46,""-7,661445439E-2"",""5,784391403E0"",""8,274360657E0""",46
"47,""-7,661445439E-2"",""5,477933407E0"",""8,111555099E0""",47
"48,""-5,363011956E-1"",""3,179499865E0"",""9,222464561E0""",48
"49,""-1,762132406E0"",""4,405331135E0"",""7,795520782E0""",49
"50,""3,830722570E-1"",""5,324704647E0"",""8,274360657E0""",50
"51,""-3,830722570E-1"",""5,784391403E0"",""7,153874874E0""",51
"52,""-1,302445769E0"",""4,558559895E0"",""1,463336086E1""",52
"53,""-3,830722570E-1"",""5,631162167E0"",""9,538499832E0""",53
"54,""-6,895300746E-1"",""3,945644379E0"",""9,701305389E0""",54
"55,""-8,427590132E-1"",""3,026270866E0"",""1,018014526E1""",55
"56,""-3,830722570E-1"",""3,639186621E0"",""7,153874874E0""",56
"57,""-3,141192675E0"",""-2,030282974E0"",""9,701305389E0""",57
"58,""-4,213795185E0"",""-1,723825216E0"",""7,948749542E0""",58
"59,""-1,302445769E0"",""3,792415380E0"",""7,153874874E0""",59
"60,""-2,221819162E0"",""3,639186621E0"",""8,427590370E0""",60
"61,""-2,681505919E0"",""3,945644379E0"",""8,743624687E0""",61
"62,""-1,608903527E0"",""3,945644379E0"",""8,274360657E0""",62
"63,""-8,427590132E-1"",""3,945644379E0"",""7,795520782E0""",63
"64,""-7,661445439E-2"",""5,631162167E0"",""8,274360657E0""",64
"65,""-7,661445439E-2"",""5,477933407E0"",""7,948749542E0""",65
"66,""-6,895300746E-1"",""5,018246651E0"",""8,274360657E0""",66
"67,""3,830722570E-1"",""5,171475887E0"",""8,906430244E0""",67
"68,""2,298433632E-1"",""5,631162167E0"",""7,948749542E0""",68
"69,""-6,895300746E-1"",""5,171475887E0"",""7,795520782E0""",69
"70,""3,830722570E-1"",""5,324704647E0"",""8,274360657E0""",70
"71,""-7,661445439E-2"",""5,171475887E0"",""8,427590370E0""",71
"72,""-7,661445439E-2"",""5,477933407E0"",""8,111555099E0""",72
"73,""7,661445439E-2"",""5,171475887E0"",""8,111555099E0""",73
"74,""-7,661445439E-2"",""5,018246651E0"",""8,427590370E0""",74
"75,""-3,447650433E0"",""2,260126352E0"",""9,069235802E0""",75
"76,""1,149216771E0"",""1,953668594E0"",""6,837840080E0""",76
"77,""-1,915361404E0"",""3,945644379E0"",""9,385271072E0""",77
"78,""9,959878922E-1"",""3,485957623E0"",""9,701305389E0""",78
"79,""5,363011956E-1"",""5,477933407E0"",""7,469909191E0""",79
"80,""3,830722570E-1"",""4,865017891E0"",""8,111555099E0""",80
"81,""-5,363011956E-1"",""5,171475887E0"",""1,081221485E1""",81
"82,""-2,987963676E0"",""2,873042107E0"",""1,113782597E1""",82
"83,""-1,455674648E0"",""2,873042107E0"",""9,864110947E0""",83
"84,""-6,895300746E-1"",""4,558559895E0"",""9,069235802E0""",84
"85,""-7,661445439E-2"",""4,558559895E0"",""8,111555099E0""",85
"86,""3,830722570E-1"",""5,018246651E0"",""7,316680431E0""",86
"87,""-7,661445439E-2"",""5,171475887E0"",""7,469909191E0""",87
"88,""5,363011956E-1"",""6,090848923E0"",""5,726930618E0""",88
"89,""-2,221819162E0"",""3,332728863E0"",""1,049618053E1""",89
"90,""-3,294421434E0"",""2,566584110E0"",""1,081221485E1""",90
"91,""-2,221819162E0"",""2,566584110E0"",""7,632715225E0""",91
"92,""-1,302445769E0"",""4,711789131E0"",""7,948749542E0""",92
"93,""-1,149216771E0"",""5,324704647E0"",""6,837840080E0""",93
"94,""2,298433632E-1"",""3,792415380E0"",""8,906430244E0""",94
"95,""-2,528276920E0"",""3,026270866E0"",""9,538499832E0""",95
"96,""-9,959878922E-1"",""1,800439715E0"",""1,001733971E1""",96
"97,""-2,298433632E-1"",""1,493981838E0"",""9,069235802E0""",97
"98,""-9,959878922E-1"",""2,719813108E0"",""1,081221485E1""",98
"99,""-2,375048161E0"",""3,485957623E0"",""8,906430244E0""",99
"100,""-7,661445439E-2"",""4,405331135E0"",""7,948749542E0""",100
"101,""-2,298433632E-1"",""4,865017891E0"",""8,274360657E0""",101
"102,""5,363011956E-1"",""3,792415380E0"",""9,385271072E0""",102
"103,""-7,661445439E-2"",""4,098873138E0"",""7,795520782E0""",103
"104,""3,830722570E-1"",""4,558559895E0"",""8,743624687E0""",104
"105,""-5,363011956E-1"",""3,945644379E0"",""8,743624687E0""",105
"106,""-1,915361404E0"",""3,485957623E0"",""9,701305389E0""",106
"107,""-2,298433632E-1"",""4,405331135E0"",""8,590395927E0""",107
"108,""-9,959878922E-1"",""4,098873138E0"",""8,743624687E0""",108
"109,""-7,661445439E-2"",""4,098873138E0"",""8,427590370E0""",109
"110,""1,455674648E0"",""3,792415380E0"",""9,069235802E0""",110
"111,""-2,068590164E0"",""4,405331135E0"",""9,385271072E0""",111
"112,""-2,298433632E-1"",""5,631162167E0"",""8,111555099E0""",112
"113,""5,363011956E-1"",""5,018246651E0"",""8,111555099E0""",113
"114,""9,959878922E-1"",""2,106897593E0"",""8,427590370E0""",114
"115,""-6,895300746E-1"",""3,179499865E0"",""9,385271072E0""",115
"116,""-1,149216771E0"",""3,179499865E0"",""8,111555099E0""",116
"117,""-3,447650433E0"",""2,873042107E0"",""1,034295177E1""",117
"118,""-1,455674648E0"",""3,945644379E0"",""8,743624687E0""",118
"119,""-7,661445439E-2"",""2,413355350E0"",""8,274360657E0""",119
"120,""-7,661445439E-2"",""2,873042107E0"",""9,538499832E0""",120
"121,""-3,830722570E-1"",""3,792415380E0"",""8,274360657E0""",121
"122,""-1,608903527E0"",""4,252102375E0"",""9,538499832E0""",122
"123,""-8,427590132E-1"",""3,945644379E0"",""6,675034523E0""",123
"124,""7,661445439E-2"",""3,179499865E0"",""8,743624687E0""",124
"125,""5,363011956E-1"",""3,026270866E0"",""1,001733971E1""",125
"126,""3,830722570E-1"",""3,639186621E0"",""9,864110947E0""",126
"127,""-1,608903527E0"",""1,800439715E0"",""1,097502041E1""",127
"128,""-8,427590132E-1"",""1,800439715E0"",""7,795520782E0""",128
"129,""-5,363011956E-1"",""2,566584110E0"",""7,795520782E0""",129
"130,""-2,298433632E-1"",""1,800439715E0"",""1,049618053E1""",130
"131,""-6,895300746E-1"",""2,106897593E0"",""8,743624687E0""",131
"132,""-1,608903527E0"",""1,340752959E0"",""9,222464561E0""",132
"133,""-2,528276920E0"",""1,340752959E0"",""1,081221485E1""",133
"134,""-1,455674648E0"",""2,873042107E0"",""1,081221485E1""",134
"135,""-9,959878922E-1"",""3,026270866E0"",""7,153874874E0""",135
"136,""7,661445439E-2"",""2,106897593E0"",""1,001733971E1""",136
"137,""-1,608903527E0"",""2,106897593E0"",""1,097502041E1""",137
"138,""-2,068590164E0"",""2,566584110E0"",""9,538499832E0""",138
"139,""-1,762132406E0"",""2,719813108E0"",""9,538499832E0""",139
"140,""-3,830722570E-1"",""1,953668594E0"",""8,906430244E0""",140
"141,""2,298433632E-1"",""2,413355350E0"",""9,701305389E0""",141
"142,""-8,427590132E-1"",""2,413355350E0"",""7,469909191E0""",142
"143,""-1,762132406E0"",""4,405331135E0"",""8,906430244E0""",143
"144,""1,608903527E0"",""2,719813108E0"",""1,001733971E1""",144
"145,""2,298433632E-1"",""2,413355350E0"",""9,385271072E0""",145
"146,""-7,661445439E-2"",""2,106897593E0"",""1,097502041E1""",146
"147,""-1,149216771E0"",""2,719813108E0"",""9,222464561E0""",147
"148,""-8,427590132E-1"",""3,945644379E0"",""7,795520782E0""",148
"149,""2,298433632E-1"",""2,413355350E0"",""8,743624687E0""",149
"150,""5,363011956E-1"",""2,873042107E0"",""9,701305389E0""",150
"151,""-7,661445439E-2"",""3,485957623E0"",""1,001733971E1""",151
"152,""-1,762132406E0"",""3,179499865E0"",""1,001733971E1""",152
"153,""-2,298433632E-1"",""3,332728863E0"",""8,906430244E0""",153
"154,""1,149216771E0"",""3,179499865E0"",""9,385271072E0""",154
"155,""-1,302445769E0"",""2,260126352E0"",""8,743624687E0""",155
"156,""-2,298433632E-1"",""2,719813108E0"",""8,427590370E0""",156
"157,""5,363011956E-1"",""1,647210717E0"",""8,906430244E0""",157
"158,""-9,959878922E-1"",""2,566584110E0"",""1,018014526E1""",158
"159,""-9,959878922E-1"",""2,260126352E0"",""1,034295177E1""",159
"160,""2,298433632E-1"",""1,953668594E0"",""9,069235802E0""",160
"161,""-3,830722570E-1"",""2,260126352E0"",""9,222464561E0""",161
"162,""-2,068590164E0"",""1,800439715E0"",""8,743624687E0""",162
"163,""7,661445439E-2"",""1,647210717E0"",""1,081221485E1""",163
"164,""9,959878922E-1"",""1,953668594E0"",""1,018014526E1""",164
"165,""-1,608903527E0"",""2,106897593E0"",""9,538499832E0""",165
"166,""-1,302445769E0"",""2,719813108E0"",""8,427590370E0""",166
"167,""7,661445439E-2"",""8,810662031E-1"",""1,272757626E1""",167
"168,""-7,661445439E-2"",""2,260126352E0"",""9,538499832E0""",168
"169,""-1,762132406E0"",""2,260126352E0"",""9,701305389E0""",169
"170,""-6,895300746E-1"",""1,493981838E0"",""1,193270111E1""",170
"171,""6,895300746E-1"",""2,413355350E0"",""1,049618053E1""",171
"172,""5,363011956E-1"",""2,566584110E0"",""9,069235802E0""",172
"173,""-1,608903527E0"",""2,106897593E0"",""8,906430244E0""",173
"174,""-1,302445769E0"",""3,332728863E0"",""9,701305389E0""",174
"175,""3,830722570E-1"",""2,106897593E0"",""9,222464561E0""",175
"176,""9,959878922E-1"",""1,953668594E0"",""1,034295177E1""",176
"177,""-6,895300746E-1"",""2,566584110E0"",""8,274360657E0""",177
"178,""-5,363011956E-1"",""3,792415380E0"",""6,521805286E0""",178
"179,""8,427590132E-1"",""2,719813108E0"",""7,795520782E0""",179
"180,""8,427590132E-1"",""2,260126352E0"",""8,906430244E0""",180
"181,""-7,661445439E-2"",""2,873042107E0"",""7,632715225E0""",181
"182,""-1,915361404E0"",""2,719813108E0"",""9,864110947E0""",182
"183,""-6,895300746E-1"",""3,179499865E0"",""9,864110947E0""",183
"184,""6,895300746E-1"",""4,098873138E0"",""8,274360657E0""",184
"185,""-7,661445439E-2"",""3,639186621E0"",""1,081221485E1""",185
"186,""-1,762132406E0"",""3,485957623E0"",""9,222464561E0""",186
"187,""-6,895300746E-1"",""2,873042107E0"",""1,065898609E1""",187
"188,""3,830722570E-1"",""2,413355350E0"",""9,069235802E0""",188
"189,""1,149216771E0"",""3,179499865E0"",""1,018014526E1""",189
"190,""-7,661445439E-2"",""2,566584110E0"",""9,538499832E0""",190
"191,""-1,455674648E0"",""3,026270866E0"",""9,222464561E0""",191
"192,""-6,895300746E-1"",""3,179499865E0"",""7,153874874E0""",192
"193,""-1,302445769E0"",""3,792415380E0"",""1,034295177E1""",193
"194,""-9,959878922E-1"",""3,332728863E0"",""9,222464561E0""",194
"195,""5,363011956E-1"",""3,026270866E0"",""7,153874874E0""",195
"196,""3,830722570E-1"",""3,026270866E0"",""8,427590370E0""",196
"197,""1,762132406E0"",""4,865017891E0"",""8,906430244E0""",197
"198,""1,302445769E0"",""3,026270866E0"",""9,538499832E0""",198
"199,""-1,302445769E0"",""3,639186621E0"",""1,081221485E1""",199
"200,""-7,661445439E-2"",""3,179499865E0"",""1,527500725E1""",200
"201,""-7,661445439E-2"",""3,332728863E0"",""1,049618053E1""",201
"202,""6,895300746E-1"",""3,026270866E0"",""1,001733971E1""",202
"203,""-7,661445439E-2"",""2,873042107E0"",""6,205770969E0""",203
"204,""-2,298433632E-1"",""2,413355350E0"",""9,069235802E0""",204
"205,""-7,661445439E-2"",""2,413355350E0"",""1,113782597E1""",205
"206,""-2,375048161E0"",""3,179499865E0"",""1,256477070E1""",206
"207,""-1,762132406E0"",""1,800439715E0"",""1,001733971E1""",207
"208,""7,661445439E-2"",""1,647210717E0"",""6,205770969E0""",208
"209,""-7,661445439E-2"",""1,647210717E0"",""8,427590370E0""",209
"210,""5,363011956E-1"",""1,034295082E0"",""1,081221485E1""",210
"211,""-2,068590164E0"",""2,681505978E-1"",""9,222464561E0""",211
"212,""-1,302445769E0"",""1,149216816E-1"",""1,065898609E1""",212
"213,""-7,661445439E-2"",""4,213795066E-1"",""8,274360657E0""",213
"214,""-7,661445439E-2"",""3,026270866E0"",""6,837840080E0""",214
"215,""5,363011956E-1"",""5,018246651E0"",""8,590395927E0""",215
"216,""-8,427590132E-1"",""5,171475887E0"",""7,316680431E0""",216
"217,""-3,830722570E-1"",""5,018246651E0"",""7,000645638E0""",217
"218,""7,661445439E-2"",""4,865017891E0"",""4,769249916E0""",218
"219,""-9,959878922E-1"",""2,719813108E0"",""7,795520782E0""",219
"220,""5,363011956E-1"",""4,865017891E0"",""7,632715225E0""",220
"221,""-5,363011956E-1"",""3,639186621E0"",""9,222464561E0""",221
"222,""7,661445439E-2"",""4,711789131E0"",""7,316680431E0""",222
"223,""3,830722570E-1"",""4,098873138E0"",""8,590395927E0""",223
"224,""6,895300746E-1"",""3,332728863E0"",""1,081221485E1""",224
"225,""3,830722570E-1"",""5,018246651E0"",""8,427590370E0""",225
"226,""-8,427590132E-1"",""4,711789131E0"",""6,358999729E0""",226
"227,""5,363011956E-1"",""3,639186621E0"",""1,129105568E1""",227
"228,""2,298433632E-1"",""3,945644379E0"",""8,906430244E0""",228
"229,""-1,608903527E0"",""3,332728863E0"",""7,948749542E0""",229
"230,""-7,661445439E-2"",""3,945644379E0"",""9,701305389E0""",230
"231,""9,959878922E-1"",""3,639186621E0"",""8,111555099E0""",231
"232,""-8,427590132E-1"",""3,026270866E0"",""7,795520782E0""",232
"233,""2,298433632E-1"",""3,179499865E0"",""8,274360657E0""",233
"234,""1,302445769E0"",""3,179499865E0"",""9,069235802E0""",234
"235,""-8,427590132E-1"",""2,719813108E0"",""9,069235802E0""",235
"236,""1,149216771E0"",""2,260126352E0"",""8,906430244E0""",236
"237,""-3,830722570E-1"",""2,873042107E0"",""1,208592987E1""",237
"238,""-9,959878922E-1"",""2,873042107E0"",""1,034295177E1""",238
"239,""1,608903527E0"",""2,873042107E0"",""8,590395927E0""",239
"240,""3,830722570E-1"",""2,566584110E0"",""1,304361057E1""",240
"241,""-8,427590132E-1"",""3,026270866E0"",""8,427590370E0""",241
"242,""3,830722570E-1"",""3,026270866E0"",""1,001733971E1""",242
"243,""3,830722570E-1"",""2,413355350E0"",""1,208592987E1""",243
"244,""-7,661445439E-2"",""4,865017891E0"",""8,590395927E0""",244
"245,""-1,149216771E0"",""3,792415380E0"",""8,427590370E0""",245
"246,""7,661445439E-2"",""3,792415380E0"",""9,864110947E0""",246
"247,""8,427590132E-1"",""2,719813108E0"",""1,001733971E1""",247
"248,""1,149216771E0"",""2,719813108E0"",""1,034295177E1""",248
"249,""-3,830722570E-1"",""3,792415380E0"",""1,034295177E1""",249
"250,""-1,302445769E0"",""2,873042107E0"",""7,632715225E0""",250
"251,""-8,427590132E-1"",""2,566584110E0"",""8,427590370E0""",251
"252,""-1,302445769E0"",""2,719813108E0"",""9,222464561E0""",252
"253,""5,363011956E-1"",""3,332728863E0"",""8,427590370E0""",253
"254,""9,959878922E-1"",""3,179499865E0"",""9,538499832E0""",254
"255,""1,302445769E0"",""4,098873138E0"",""8,906430244E0""",255
"256,""9,959878922E-1"",""3,485957623E0"",""1,049618053E1""",256
"257,""5,363011956E-1"",""3,485957623E0"",""7,795520782E0""",257
"258,""3,830722570E-1"",""3,026270866E0"",""8,743624687E0""",258
"259,""-6,895300746E-1"",""2,719813108E0"",""8,111555099E0""",259
"260,""-6,895300746E-1"",""3,026270866E0"",""8,590395927E0""",260
"261,""-1,455674648E0"",""3,485957623E0"",""8,590395927E0""",261
"262,""-1,455674648E0"",""3,026270866E0"",""8,906430244E0""",262
"263,""-1,149216771E0"",""2,719813108E0"",""8,743624687E0""",263
"264,""-8,427590132E-1"",""3,179499865E0"",""9,385271072E0""",264
"265,""1,302445769E0"",""2,566584110E0"",""8,906430244E0""",265
"266,""2,298433632E-1"",""2,413355350E0"",""1,001733971E1""",266
"267,""3,830722570E-1"",""2,413355350E0"",""9,701305389E0""",267
"268,""8,427590132E-1"",""2,566584110E0"",""9,222464561E0""",268
"269,""8,427590132E-1"",""3,179499865E0"",""9,222464561E0""",269
"270,""5,363011956E-1"",""2,566584110E0"",""8,111555099E0""",270
"271,""9,959878922E-1"",""3,485957623E0"",""7,948749542E0""",271
"272,""9,959878922E-1"",""2,719813108E0"",""9,864110947E0""",272
"273,""6,895300746E-1"",""2,566584110E0"",""1,001733971E1""",273
"274,""-7,661445439E-2"",""2,719813108E0"",""9,538499832E0""",274
"275,""7,661445439E-2"",""2,719813108E0"",""9,538499832E0""",275
"276,""5,363011956E-1"",""2,413355350E0"",""7,316680431E0""",276
"277,""-7,661445439E-2"",""1,953668594E0"",""1,383848572E1""",277
"278,""1,149216771E0"",""2,260126352E0"",""8,590395927E0""",278
"279,""5,363011956E-1"",""3,639186621E0"",""8,111555099E0""",279
"280,""1,455674648E0"",""3,179499865E0"",""8,743624687E0""",280
"281,""-5,363011956E-1"",""2,260126352E0"",""1,113782597E1""",281
"282,""9,959878922E-1"",""3,179499865E0"",""8,590395927E0""",282
"283,""7,661445439E-2"",""2,260126352E0"",""1,193270111E1""",283
"284,""-1,149216771E0"",""2,873042107E0"",""9,385271072E0""",284
"285,""-2,375048161E0"",""2,566584110E0"",""1,160709000E1""",285
"286,""-9,959878922E-1"",""3,179499865E0"",""8,427590370E0""",286
"287,""-7,661445439E-2"",""2,413355350E0"",""7,948749542E0""",287
"288,""2,221819162E0"",""3,026270866E0"",""6,521805286E0""",288
"289,""5,363011956E-1"",""2,413355350E0"",""1,272757626E1""",289
"290,""6,895300746E-1"",""3,332728863E0"",""8,274360657E0""",290
"291,""-7,661445439E-2"",""3,332728863E0"",""6,205770969E0""",291
"292,""-5,363011956E-1"",""6,856993675E0"",""3,974374771E0""",292
"293,""-7,661445439E-2"",""4,558559895E0"",""6,521805286E0""",293
"294,""6,895300746E-1"",""3,026270866E0"",""8,590395927E0""",294
"295,""9,959878922E-1"",""3,485957623E0"",""1,018014526E1""",295
"296,""2,068590164E0"",""4,711789131E0"",""8,274360657E0""",296
"297,""7,661445439E-2"",""2,413355350E0"",""1,097502041E1""",297
"298,""-6,895300746E-1"",""4,558559895E0"",""7,153874874E0""",298
"299,""-1,302445769E0"",""4,865017891E0"",""8,427590370E0""",299
"300,""-8,427590132E-1"",""6,244078159E0"",""1,018014526E1""",300
"301,""3,830722570E-1"",""5,784391403E0"",""7,795520782E0""",301
"302,""9,959878922E-1"",""5,631162167E0"",""6,837840080E0""",302
"303,""1,149216771E0"",""5,477933407E0"",""6,837840080E0""",303
"304,""5,363011956E-1"",""5,171475887E0"",""9,538499832E0""",304
"305,""8,427590132E-1"",""6,550535679E0"",""7,795520782E0""",305
"306,""1,455674648E0"",""4,865017891E0"",""8,906430244E0""",306
"307,""1,455674648E0"",""4,558559895E0"",""7,000645638E0""",307
"308,""1,762132406E0"",""3,945644379E0"",""1,160709000E1""",308
"309,""2,221819162E0"",""5,171475887E0"",""7,795520782E0""",309
"310,""6,895300746E-1"",""4,865017891E0"",""9,701305389E0""",310
"311,""8,427590132E-1"",""4,558559895E0"",""9,385271072E0""",311
"312,""-9,959878922E-1"",""5,937620163E0"",""7,000645638E0""",312
"313,""-3,830722570E-1"",""6,090848923E0"",""7,153874874E0""",313
"314,""-2,298433632E-1"",""6,856993675E0"",""7,000645638E0""",314
"315,""-5,363011956E-1"",""7,776367188E0"",""7,000645638E0""",315
"316,""7,661445439E-2"",""7,316680431E0"",""7,153874874E0""",316
"317,""3,830722570E-1"",""5,477933407E0"",""9,069235802E0""",317
"318,""1,455674648E0"",""4,865017891E0"",""7,948749542E0""",318
"319,""7,661445439E-2"",""4,711789131E0"",""1,081221485E1""",319
"320,""2,375048161E0"",""3,485957623E0"",""7,316680431E0""",320
"321,""3,830722570E-1"",""4,558559895E0"",""7,000645638E0""",321
"322,""1,149216771E0"",""5,324704647E0"",""8,274360657E0""",322
"323,""5,363011956E-1"",""3,639186621E0"",""7,153874874E0""",323
"324,""-2,681505919E0"",""4,865017891E0"",""1,463336086E1""",324
"325,""-9,959878922E-1"",""1,647210717E0"",""3,974374771E0""",325
"326,""-7,661445439E-2"",""1,034295082E0"",""8,274360657E0""",326
"327,""-6,895300746E-1"",""1,340752959E0"",""7,153874874E0""",327
"328,""-2,298433632E-1"",""1,340752959E0"",""1,160709000E1""",328
"329,""-7,661445439E-2"",""3,026270866E0"",""1,081221485E1""",329
"330,""3,830722570E-1"",""5,171475887E0"",""1,065898609E1""",330
"331,""8,427590132E-1"",""2,719813108E0"",""7,316680431E0""",331
"332,""-6,895300746E-1"",""1,340752959E0"",""8,590395927E0""",332
"333,""-5,363011956E-1"",""1,953668594E0"",""7,948749542E0""",333
"334,""-2,298433632E-1"",""2,413355350E0"",""9,222464561E0""",334
"335,""2,298433632E-1"",""1,340752959E0"",""1,176989555E1""",335
"336,""9,959878922E-1"",""1,800439715E0"",""1,081221485E1""",336
"337,""-1,455674648E0"",""2,106897593E0"",""9,222464561E0""",337
"338,""-6,895300746E-1"",""1,493981838E0"",""9,538499832E0""",338
"339,""2,298433632E-1"",""2,106897593E0"",""9,385271072E0""",339
"340,""2,298433632E-1"",""1,493981838E0"",""8,274360657E0""",340
"341,""1,302445769E0"",""1,800439715E0"",""9,069235802E0""",341
"342,""-2,528276920E0"",""2,260126352E0"",""1,065898609E1""",342
"343,""-2,298433632E-1"",""3,639186621E0"",""9,069235802E0""",343
"344,""9,959878922E-1"",""5,018246651E0"",""8,111555099E0""",344
"345,""1,608903527E0"",""3,026270866E0"",""7,795520782E0""",345
"346,""7,661445439E-2"",""2,566584110E0"",""9,701305389E0""",346
"347,""-2,681505919E0"",""3,945644379E0"",""1,049618053E1""",347
"348,""3,830722570E-1"",""4,098873138E0"",""9,701305389E0""",348
"349,""5,363011956E-1"",""5,018246651E0"",""9,864110947E0""",349
"350,""7,661445439E-2"",""4,098873138E0"",""9,385271072E0""",350
"351,""-9,959878922E-1"",""3,332728863E0"",""8,906430244E0""",351
"352,""-6,895300746E-1"",""3,179499865E0"",""7,469909191E0""",352
"353,""3,830722570E-1"",""3,639186621E0"",""7,000645638E0""",353
"354,""3,830722570E-1"",""3,026270866E0"",""9,385271072E0""",354
"355,""5,363011956E-1"",""2,719813108E0"",""1,001733971E1""",355
"356,""-5,363011956E-1"",""2,873042107E0"",""7,948749542E0""",356
"357,""3,830722570E-1"",""5,018246651E0"",""7,795520782E0""",357
"358,""9,959878922E-1"",""3,485957623E0"",""7,948749542E0""",358
"359,""6,895300746E-1"",""3,485957623E0"",""8,427590370E0""",359
"360,""-1,149216771E0"",""2,873042107E0"",""1,034295177E1""",360
"361,""-3,830722570E-1"",""2,719813108E0"",""7,316680431E0""",361
"362,""1,149216771E0"",""2,566584110E0"",""8,427590370E0""",362
"363,""6,895300746E-1"",""3,179499865E0"",""9,222464561E0""",363
"364,""6,895300746E-1"",""6,703764915E0"",""7,795520782E0""",364
"365,""7,661445439E-2"",""5,784391403E0"",""7,000645638E0""",365
"366,""-8,427590132E-1"",""5,631162167E0"",""9,385271072E0""",366
"367,""2,068590164E0"",""5,171475887E0"",""7,469909191E0""",367
"368,""9,959878922E-1"",""6,397306919E0"",""6,675034523E0""",368
"369,""-5,363011956E-1"",""3,792415380E0"",""1,049618053E1""",369
"370,""-6,895300746E-1"",""4,558559895E0"",""7,000645638E0""",370
"371,""8,427590132E-1"",""3,945644379E0"",""7,795520782E0""",371
"372,""1,915361404E0"",""3,945644379E0"",""5,726930618E0""",372
"373,""2,298433632E-1"",""4,558559895E0"",""9,385271072E0""",373
"374,""-1,149216771E0"",""4,558559895E0"",""8,906430244E0""",374
"375,""8,427590132E-1"",""5,784391403E0"",""7,795520782E0""",375
"376,""1,915361404E0"",""6,550535679E0"",""7,000645638E0""",376
"377,""8,427590132E-1"",""5,937620163E0"",""6,521805286E0""",377
"378,""-3,830722570E-1"",""4,711789131E0"",""6,205770969E0""",378
"379,""-7,661445439E-2"",""4,711789131E0"",""8,743624687E0""",379
"380,""1,455674648E0"",""3,945644379E0"",""1,018014526E1""",380
"381,""1,302445769E0"",""4,405331135E0"",""7,000645638E0""",381
"382,""1,149216771E0"",""5,937620163E0"",""7,948749542E0""",382
"383,""-1,302445769E0"",""5,324704647E0"",""8,906430244E0""",383
"384,""-7,661445439E-2"",""5,784391403E0"",""8,743624687E0""",384
"385,""1,302445769E0"",""3,945644379E0"",""6,675034523E0""",385
"386,""9,959878922E-1"",""4,558559895E0"",""7,632715225E0""",386
"387,""-5,363011956E-1"",""5,324704647E0"",""8,427590370E0""",387
"388,""-1,149216771E0"",""5,631162167E0"",""7,153874874E0""",388
"389,""-2,298433632E-1"",""5,477933407E0"",""8,906430244E0""",389
"390,""8,427590132E-1"",""4,098873138E0"",""9,069235802E0""",390
"391,""9,959878922E-1"",""4,711789131E0"",""8,906430244E0""",391
"392,""-8,427590132E-1"",""4,558559895E0"",""9,069235802E0""",392
"393,""-2,068590164E0"",""5,171475887E0"",""9,701305389E0""",393
"394,""3,830722570E-1"",""5,937620163E0"",""8,590395927E0""",394
"395,""9,959878922E-1"",""4,558559895E0"",""8,274360657E0""",395
"396,""5,363011956E-1"",""5,324704647E0"",""9,069235802E0""",396
"397,""4,060565948E0"",""5,324704647E0"",""1,145386124E1""",397
"398,""3,141192675E0"",""4,865017891E0"",""8,743624687E0""",398
"399,""1,762132406E0"",""5,477933407E0"",""5,248090267E0""",399
"400,""2,681505919E0"",""5,784391403E0"",""7,632715225E0""",400
"401,""5,439626217E0"",""3,792415380E0"",""8,274360657E0""",401
"402,""3,447650433E0"",""5,477933407E0"",""9,701305389E0""",402
"403,""3,907337189E0"",""4,558559895E0"",""9,701305389E0""",403
"404,""2,987963676E0"",""4,865017891E0"",""8,274360657E0""",404
"405,""1,149216771E0"",""5,631162167E0"",""6,837840080E0""",405
"406,""3,830722570E-1"",""4,865017891E0"",""7,000645638E0""",406
"407,""1,608903527E0"",""5,631162167E0"",""6,675034523E0""",407
"408,""2,068590164E0"",""6,550535679E0"",""7,153874874E0""",408
"409,""1,762132406E0"",""4,252102375E0"",""8,590395927E0""",409
"410,""2,375048161E0"",""3,332728863E0"",""9,538499832E0""",410
"411,""2,221819162E0"",""6,090848923E0"",""7,469909191E0""",411
"412,""1,455674648E0"",""6,856993675E0"",""5,564124584E0""",412
"413,""-2,298433632E-1"",""5,171475887E0"",""7,469909191E0""",413
"414,""7,661445439E-2"",""4,405331135E0"",""8,590395927E0""",414
"415,""3,830722570E-1"",""6,550535679E0"",""6,837840080E0""",415
"416,""5,363011956E-1"",""6,856993675E0"",""7,469909191E0""",416
"417,""8,427590132E-1"",""5,018246651E0"",""8,427590370E0""",417
"418,""2,221819162E0"",""4,098873138E0"",""8,590395927E0""",418
"419,""3,141192675E0"",""4,711789131E0"",""9,385271072E0""",419
"420,""2,221819162E0"",""4,405331135E0"",""8,274360657E0""",420
"421,""-2,298433632E-1"",""3,639186621E0"",""9,385271072E0""",421
"422,""-3,830722570E-1"",""3,332728863E0"",""1,065898609E1""",422
"423,""8,427590132E-1"",""3,332728863E0"",""8,590395927E0""",423
"424,""1,302445769E0"",""3,179499865E0"",""5,726930618E0""",424
"425,""1,149216771E0"",""2,719813108E0"",""1,160709000E1""",425
"426,""1,915361404E0"",""3,179499865E0"",""1,018014526E1""",426
"427,""5,363011956E-1"",""2,566584110E0"",""9,538499832E0""",427
"428,""5,363011956E-1"",""3,332728863E0"",""8,906430244E0""",428
"429,""1,149216771E0"",""3,945644379E0"",""9,701305389E0""",429
"430,""2,068590164E0"",""2,566584110E0"",""8,743624687E0""",430
"431,""2,221819162E0"",""3,179499865E0"",""9,222464561E0""",431
"432,""9,959878922E-1"",""3,179499865E0"",""1,049618053E1""",432
"433,""-7,661445439E-2"",""3,179499865E0"",""7,000645638E0""",433
"434,""6,895300746E-1"",""4,558559895E0"",""8,427590370E0""",434
"435,""1,455674648E0"",""4,711789131E0"",""7,153874874E0""",435
"436,""2,375048161E0"",""3,792415380E0"",""8,743624687E0""",436
"437,""2,681505919E0"",""3,792415380E0"",""7,948749542E0""",437
"438,""3,830722570E-1"",""3,945644379E0"",""9,222464561E0""",438
"439,""-1,149216771E0"",""4,252102375E0"",""7,795520782E0""",439
"440,""8,427590132E-1"",""4,865017891E0"",""9,385271072E0""",440
"441,""3,830722570E-1"",""3,792415380E0"",""9,385271072E0""",441
"442,""1,455674648E0"",""3,945644379E0"",""7,469909191E0""",442
"443,""2,375048161E0"",""4,098873138E0"",""7,153874874E0""",443
"444,""6,895300746E-1"",""4,711789131E0"",""8,743624687E0""",444
"445,""1,608903527E0"",""3,639186621E0"",""9,385271072E0""",445
"446,""1,608903527E0"",""3,485957623E0"",""9,222464561E0""",446
"447,""9,959878922E-1"",""4,252102375E0"",""1,001733971E1""",447
"448,""1,302445769E0"",""4,558559895E0"",""7,948749542E0""",448
"449,""1,762132406E0"",""3,792415380E0"",""9,701305389E0""",449
"450,""7,661445439E-2"",""5,324704647E0"",""8,274360657E0""",450
"451,""7,661445439E-2"",""5,171475887E0"",""6,837840080E0""",451
"452,""-3,830722570E-1"",""6,244078159E0"",""8,427590370E0""",452
"453,""6,895300746E-1"",""5,784391403E0"",""8,743624687E0""",453
"454,""1,149216771E0"",""3,792415380E0"",""8,743624687E0""",454
"455,""1,455674648E0"",""3,792415380E0"",""7,948749542E0""",455
"456,""9,959878922E-1"",""6,244078159E0"",""5,085284233E0""",456
"457,""1,149216771E0"",""3,792415380E0"",""1,018014526E1""",457
"458,""1,762132406E0"",""4,405331135E0"",""7,632715225E0""",458
"459,""6,895300746E-1"",""4,711789131E0"",""1,034295177E1""",459
"460,""1,762132406E0"",""5,018246651E0"",""8,590395927E0""",460
"461,""1,302445769E0"",""6,090848923E0"",""1,224873543E1""",461
"462,""2,375048161E0"",""5,171475887E0"",""7,632715225E0""",462
"463,""1,455674648E0"",""5,018246651E0"",""9,069235802E0""",463
"464,""1,455674648E0"",""4,558559895E0"",""6,837840080E0""",464
"465,""1,455674648E0"",""5,018246651E0"",""8,427590370E0""",465
"466,""1,915361404E0"",""5,171475887E0"",""8,274360657E0""",466
"467,""1,302445769E0"",""5,171475887E0"",""7,316680431E0""",467
"468,""2,221819162E0"",""5,324704647E0"",""5,880159378E0""",468
"469,""1,762132406E0"",""5,631162167E0"",""7,153874874E0""",469
"470,""-7,661445439E-2"",""6,856993675E0"",""7,948749542E0""",470
"471,""6,895300746E-1"",""6,090848923E0"",""6,521805286E0""",471
"472,""8,427590132E-1"",""6,550535679E0"",""7,153874874E0""",472
"473,""5,363011956E-1"",""6,703764915E0"",""7,153874874E0""",473
"474,""5,363011956E-1"",""6,703764915E0"",""7,153874874E0""",474
"475,""-7,661445439E-2"",""6,244078159E0"",""7,316680431E0""",475
"476,""2,298433632E-1"",""6,550535679E0"",""7,469909191E0""",476
"477,""5,363011956E-1"",""6,244078159E0"",""7,469909191E0""",477
"478,""3,830722570E-1"",""6,397306919E0"",""7,632715225E0""",478
"479,""6,895300746E-1"",""6,244078159E0"",""7,469909191E0""",479
"480,""3,830722570E-1"",""6,397306919E0"",""7,469909191E0""",480
"481,""3,830722570E-1"",""6,090848923E0"",""7,469909191E0""",481
"482,""3,830722570E-1"",""6,090848923E0"",""7,795520782E0""",482
"483,""7,661445439E-2"",""6,244078159E0"",""7,795520782E0""",483
"484,""3,830722570E-1"",""5,937620163E0"",""7,632715225E0""",484
"485,""2,298433632E-1"",""5,784391403E0"",""7,795520782E0""",485
"486,""2,298433632E-1"",""6,244078159E0"",""7,469909191E0""",486
"487,""2,298433632E-1"",""6,244078159E0"",""7,469909191E0""",487
"488,""2,298433632E-1"",""6,244078159E0"",""7,316680431E0""",488
"489,""5,363011956E-1"",""6,244078159E0"",""7,795520782E0""",489
"490,""9,959878922E-1"",""6,090848923E0"",""7,153874874E0""",490
"491,""-7,661445439E-2"",""5,477933407E0"",""9,701305389E0""",491
"492,""-1,608903527E0"",""5,477933407E0"",""7,948749542E0""",492
"493,""7,661445439E-2"",""5,324704647E0"",""7,469909191E0""",493
"494,""1,302445769E0"",""3,945644379E0"",""9,701305389E0""",494
"495,""-8,427590132E-1"",""5,171475887E0"",""1,018014526E1""",495
"496,""1,762132406E0"",""5,171475887E0"",""7,316680431E0""",496
"497,""-7,661445439E-2"",""3,945644379E0"",""8,590395927E0""",497
"498,""7,661445439E-2"",""4,252102375E0"",""9,385271072E0""",498
"499,""1,302445769E0"",""4,711789131E0"",""8,906430244E0""",499
"500,""1,762132406E0"",""4,865017891E0"",""8,274360657E0""",500
"501,""2,298433632E-1"",""4,098873138E0"",""8,590395927E0""",501
"502,""-3,830722570E-1"",""3,485957623E0"",""9,385271072E0""",502
"503,""-6,895300746E-1"",""3,792415380E0"",""7,632715225E0""",503
"504,""-6,895300746E-1"",""3,332728863E0"",""9,385271072E0""",504
"505,""3,830722570E-1"",""3,026270866E0"",""9,222464561E0""",505
"506,""1,762132406E0"",""5,631162167E0"",""5,085284233E0""",506
"507,""3,830722570E-1"",""4,098873138E0"",""8,743624687E0""",507
"508,""1,455674648E0"",""5,631162167E0"",""7,000645638E0""",508
"509,""3,830722570E-1"",""4,711789131E0"",""8,274360657E0""",509
"510,""-3,830722570E-1"",""5,784391403E0"",""7,948749542E0""",510
"511,""-6,895300746E-1"",""6,397306919E0"",""7,469909191E0""",511
"512,""-1,915361404E0"",""5,171475887E0"",""8,906430244E0""",512
"513,""-1,762132406E0"",""5,018246651E0"",""7,153874874E0""",513
"514,""-1,302445769E0"",""5,171475887E0"",""6,837840080E0""",514
"515,""-9,959878922E-1"",""5,018246651E0"",""8,427590370E0""",515
"516,""-9,959878922E-1"",""5,631162167E0"",""6,837840080E0""",516
"517,""-1,608903527E0"",""5,324704647E0"",""9,069235802E0""",517
"518,""3,830722570E-1"",""4,405331135E0"",""8,274360657E0""",518
"519,""5,363011956E-1"",""4,558559895E0"",""7,153874874E0""",519
"520,""2,298433632E-1"",""5,018246651E0"",""7,948749542E0""",520
"521,""6,895300746E-1"",""4,405331135E0"",""8,111555099E0""",521
"522,""1,608903527E0"",""4,252102375E0"",""7,000645638E0""",522
"523,""1,762132406E0"",""4,405331135E0"",""7,316680431E0""",523
"524,""1,455674648E0"",""4,558559895E0"",""7,469909191E0""",524
"525,""6,895300746E-1"",""3,792415380E0"",""1,001733971E1""",525
"526,""-7,661445439E-2"",""5,324704647E0"",""7,153874874E0""",526
"527,""-8,427590132E-1"",""5,171475887E0"",""9,701305389E0""",527
"528,""-5,363011956E-1"",""4,711789131E0"",""9,069235802E0""",528
"529,""-8,427590132E-1"",""4,865017891E0"",""9,385271072E0""",529
"530,""2,298433632E-1"",""5,784391403E0"",""7,795520782E0""",530
"531,""-7,661445439E-2"",""5,171475887E0"",""7,632715225E0""",531
"532,""-7,661445439E-2"",""4,711789131E0"",""8,427590370E0""",532
"533,""-7,661445439E-2"",""4,252102375E0"",""7,948749542E0""",533
"534,""-1,149216771E0"",""4,558559895E0"",""7,632715225E0""",534
"535,""2,298433632E-1"",""4,558559895E0"",""8,427590370E0""",535
"536,""6,895300746E-1"",""4,405331135E0"",""1,208592987E1""",536
"537,""5,363011956E-1"",""3,179499865E0"",""1,001733971E1""",537
"538,""-2,298433632E-1"",""3,485957623E0"",""6,521805286E0""",538
"539,""-1,302445769E0"",""3,945644379E0"",""9,864110947E0""",539
"540,""-5,363011956E-1"",""4,252102375E0"",""7,795520782E0""",540
"541,""-1,762132406E0"",""3,639186621E0"",""1,001733971E1""",541
"542,""-6,895300746E-1"",""3,179499865E0"",""1,097502041E1""",542
"543,""1,302445769E0"",""3,639186621E0"",""9,538499832E0""",543
"544,""1,149216771E0"",""4,098873138E0"",""8,111555099E0""",544
"545,""1,302445769E0"",""4,252102375E0"",""9,701305389E0""",545
"546,""1,608903527E0"",""5,171475887E0"",""7,795520782E0""",546
"547,""9,959878922E-1"",""4,098873138E0"",""7,795520782E0""",547
"548,""-6,895300746E-1"",""4,252102375E0"",""1,018014526E1""",548
"549,""9,959878922E-1"",""4,711789131E0"",""9,069235802E0""",549
"550,""6,895300746E-1"",""3,792415380E0"",""9,222464561E0""",550
"551,""2,298433632E-1"",""3,639186621E0"",""8,111555099E0""",551
"552,""8,427590132E-1"",""3,179499865E0"",""8,590395927E0""",552
"553,""-8,427590132E-1"",""4,865017891E0"",""1,367568016E1""",553
"554,""1,149216771E0"",""4,252102375E0"",""9,069235802E0""",554
"555,""1,302445769E0"",""3,945644379E0"",""9,385271072E0""",555
"556,""5,363011956E-1"",""3,485957623E0"",""9,538499832E0""",556
"557,""1,149216771E0"",""4,098873138E0"",""7,948749542E0""",557
"558,""1,455674648E0"",""3,945644379E0"",""8,111555099E0""",558
"559,""-5,363011956E-1"",""1,493981838E0"",""3,495534420E0""",559
"560,""-6,895300746E-1"",""3,945644379E0"",""9,385271072E0""",560
"561,""9,959878922E-1"",""4,405331135E0"",""6,837840080E0""",561
"562,""-8,427590132E-1"",""4,711789131E0"",""8,743624687E0""",562
"563,""-1,149216771E0"",""5,171475887E0"",""7,632715225E0""",563
"564,""3,830722570E-1"",""3,639186621E0"",""7,632715225E0""",564
"565,""-2,298433632E-1"",""3,945644379E0"",""8,743624687E0""",565
"566,""5,363011956E-1"",""3,179499865E0"",""8,590395927E0""",566
"567,""-2,298433632E-1"",""3,945644379E0"",""1,034295177E1""",567
"568,""1,149216771E0"",""5,324704647E0"",""7,948749542E0""",568
"569,""3,830722570E-1"",""5,784391403E0"",""8,590395927E0""",569
"570,""2,298433632E-1"",""4,865017891E0"",""8,906430244E0""",570
"571,""-1,915361404E0"",""3,945644379E0"",""1,001733971E1""",571
"572,""6,895300746E-1"",""5,018246651E0"",""7,632715225E0""",572
"573,""9,959878922E-1"",""5,784391403E0"",""5,880159378E0""",573
"574,""9,959878922E-1"",""5,018246651E0"",""1,224873543E1""",574
"575,""6,895300746E-1"",""4,711789131E0"",""8,743624687E0""",575
"576,""-7,661445439E-2"",""4,865017891E0"",""7,316680431E0""",576
"577,""-7,661445439E-2"",""4,711789131E0"",""7,153874874E0""",577
"578,""1,149216771E0"",""3,639186621E0"",""8,274360657E0""",578
"579,""-6,895300746E-1"",""4,711789131E0"",""9,701305389E0""",579
"580,""3,830722570E-1"",""4,098873138E0"",""8,427590370E0""",580
"581,""3,830722570E-1"",""4,558559895E0"",""9,069235802E0""",581
"582,""7,661445439E-2"",""3,485957623E0"",""1,081221485E1""",582
"583,""-7,661445439E-2"",""4,252102375E0"",""8,427590370E0""",583
"584,""-7,661445439E-2"",""4,098873138E0"",""7,000645638E0""",584
"585,""3,830722570E-1"",""4,558559895E0"",""7,000645638E0""",585
"586,""-5,363011956E-1"",""4,252102375E0"",""9,385271072E0""",586
"587,""-6,895300746E-1"",""5,171475887E0"",""7,000645638E0""",587
"588,""-1,915361404E0"",""2,719813108E0"",""1,590707588E1""",588
"589,""-1,302445769E0"",""6,090848923E0"",""8,427590370E0""",589
"590,""-5,363011956E-1"",""4,098873138E0"",""7,316680431E0""",590
"591,""-1,149216771E0"",""3,945644379E0"",""1,097502041E1""",591
"592,""6,895300746E-1"",""5,477933407E0"",""9,701305389E0""",592
"593,""5,363011956E-1"",""5,324704647E0"",""1,049618053E1""",593
"594,""1,762132406E0"",""3,179499865E0"",""9,538499832E0""",594
"595,""5,363011956E-1"",""4,098873138E0"",""9,385271072E0""",595
"596,""6,895300746E-1"",""3,792415380E0"",""9,069235802E0""",596
"597,""5,363011956E-1"",""4,558559895E0"",""8,906430244E0""",597
"598,""-1,302445769E0"",""4,252102375E0"",""9,222464561E0""",598
"599,""1,302445769E0"",""3,332728863E0"",""8,274360657E0""",599
"600,""1,149216771E0"",""3,639186621E0"",""7,316680431E0""",600
"601,""-1,149216771E0"",""4,865017891E0"",""8,906430244E0""",601
"602,""-1,149216771E0"",""3,945644379E0"",""8,274360657E0""",602
"603,""-1,762132406E0"",""5,171475887E0"",""9,385271072E0""",603
"604,""-2,528276920E0"",""3,485957623E0"",""1,129105568E1""",604
"605,""-7,661445439E-2"",""6,090848923E0"",""7,795520782E0""",605
"606,""1,608903527E0"",""5,784391403E0"",""6,837840080E0""",606
"607,""8,427590132E-1"",""4,711789131E0"",""6,837840080E0""",607
"608,""1,302445769E0"",""4,252102375E0"",""8,743624687E0""",608
"609,""1,455674648E0"",""4,558559895E0"",""8,427590370E0""",609
"610,""-7,661445439E-2"",""4,865017891E0"",""9,222464561E0""",610
"611,""2,298433632E-1"",""5,171475887E0"",""7,795520782E0""",611
"612,""-1,762132406E0"",""5,171475887E0"",""1,049618053E1""",612
"613,""-3,830722570E-1"",""4,098873138E0"",""1,176989555E1""",613
"614,""2,221819162E0"",""3,639186621E0"",""8,427590370E0""",614
"615,""6,895300746E-1"",""3,945644379E0"",""7,948749542E0""",615
"616,""1,762132406E0"",""5,018246651E0"",""5,726930618E0""",616
"617,""6,895300746E-1"",""5,784391403E0"",""9,069235802E0""",617
"618,""-7,661445439E-2"",""4,865017891E0"",""8,111555099E0""",618
"619,""-9,959878922E-1"",""5,631162167E0"",""7,948749542E0""",619
"620,""-2,298433632E-1"",""4,252102375E0"",""8,590395927E0""",620
"621,""2,298433632E-1"",""6,397306919E0"",""7,948749542E0""",621
"622,""7,661445439E-2"",""5,324704647E0"",""7,469909191E0""",622
"623,""5,363011956E-1"",""5,018246651E0"",""7,469909191E0""",623
"624,""6,895300746E-1"",""4,252102375E0"",""8,590395927E0""",624
"625,""1,762132406E0"",""5,477933407E0"",""7,469909191E0""",625
"626,""9,959878922E-1"",""2,873042107E0"",""1,065898609E1""",626
"627,""-6,895300746E-1"",""2,719813108E0"",""7,948749542E0""",627
"628,""2,298433632E-1"",""3,485957623E0"",""7,632715225E0""",628
"629,""-8,427590132E-1"",""3,332728863E0"",""1,049618053E1""",629
"630,""-1,608903527E0"",""4,098873138E0"",""9,385271072E0""",630
"631,""-1,762132406E0"",""3,945644379E0"",""1,001733971E1""",631
"632,""-3,830722570E-1"",""5,477933407E0"",""7,948749542E0""",632
"633,""7,661445439E-2"",""4,558559895E0"",""7,632715225E0""",633
"634,""5,363011956E-1"",""3,332728863E0"",""9,069235802E0""",634
"635,""1,149216771E0"",""3,639186621E0"",""6,521805286E0""",635
"636,""1,455674648E0"",""3,332728863E0"",""1,018014526E1""",636
"637,""2,298433632E-1"",""3,485957623E0"",""1,288080502E1""",637
"638,""1,762132406E0"",""4,252102375E0"",""7,316680431E0""",638
"639,""8,427590132E-1"",""4,252102375E0"",""9,701305389E0""",639
"640,""3,830722570E-1"",""2,719813108E0"",""9,538499832E0""",640
"641,""3,830722570E-1"",""3,179499865E0"",""8,906430244E0""",641
"642,""9,959878922E-1"",""2,719813108E0"",""6,837840080E0""",642
"643,""2,298433632E-1"",""5,018246651E0"",""7,948749542E0""",643
"644,""1,302445769E0"",""5,171475887E0"",""9,222464561E0""",644
"645,""9,959878922E-1"",""5,018246651E0"",""8,111555099E0""",645
"646,""2,298433632E-1"",""2,873042107E0"",""9,385271072E0""",646
"647,""-2,298433632E-1"",""2,719813108E0"",""9,701305389E0""",647
"648,""-1,455674648E0"",""3,332728863E0"",""7,632715225E0""",648
"649,""-2,221819162E0"",""3,639186621E0"",""1,018014526E1""",649
"650,""-1,455674648E0"",""3,485957623E0"",""8,111555099E0""",650
"651,""-6,895300746E-1"",""3,485957623E0"",""8,111555099E0""",651
"652,""-9,959878922E-1"",""3,945644379E0"",""1,049618053E1""",652
"653,""5,363011956E-1"",""2,873042107E0"",""9,069235802E0""",653
"654,""9,959878922E-1"",""3,026270866E0"",""9,222464561E0""",654
"655,""8,427590132E-1"",""3,332728863E0"",""1,018014526E1""",655
"656,""-1,149216771E0"",""3,485957623E0"",""9,538499832E0""",656
"657,""-1,608903527E0"",""3,332728863E0"",""8,906430244E0""",657
"658,""-2,298433632E-1"",""5,324704647E0"",""6,837840080E0""",658
"659,""6,895300746E-1"",""4,252102375E0"",""9,538499832E0""",659
"660,""1,302445769E0"",""4,711789131E0"",""9,069235802E0""",660
"661,""8,427590132E-1"",""5,477933407E0"",""8,906430244E0""",661
"662,""-7,661445439E-2"",""5,937620163E0"",""8,427590370E0""",662
"663,""-5,363011956E-1"",""4,405331135E0"",""9,222464561E0""",663
"664,""-6,895300746E-1"",""4,865017891E0"",""8,274360657E0""",664
"665,""-3,830722570E-1"",""5,018246651E0"",""7,632715225E0""",665
"666,""-5,363011956E-1"",""5,631162167E0"",""7,948749542E0""",666
"667,""3,830722570E-1"",""3,485957623E0"",""9,538499832E0""",667
"668,""5,363011956E-1"",""3,026270866E0"",""9,069235802E0""",668
"669,""5,363011956E-1"",""3,792415380E0"",""9,385271072E0""",669
"670,""2,298433632E-1"",""2,719813108E0"",""1,113782597E1""",670
"671,""-7,661445439E-2"",""3,639186621E0"",""8,743624687E0""",671
"672,""-2,298433632E-1"",""3,639186621E0"",""1,018014526E1""",672
"673,""5,363011956E-1"",""4,098873138E0"",""8,906430244E0""",673
"674,""2,298433632E-1"",""3,639186621E0"",""8,906430244E0""",674
"675,""-1,302445769E0"",""3,332728863E0"",""8,274360657E0""",675
"676,""-2,375048161E0"",""3,485957623E0"",""9,864110947E0""",676
"677,""-5,363011956E-1"",""3,792415380E0"",""8,427590370E0""",677
"678,""7,661445439E-2"",""3,945644379E0"",""8,274360657E0""",678
"679,""3,830722570E-1"",""3,792415380E0"",""8,590395927E0""",679
"680,""1,302445769E0"",""3,179499865E0"",""8,743624687E0""",680
"681,""3,830722570E-1"",""4,405331135E0"",""9,222464561E0""",681
"682,""-3,830722570E-1"",""3,639186621E0"",""9,069235802E0""",682
"683,""-1,608903527E0"",""3,945644379E0"",""9,222464561E0""",683
"684,""-5,363011956E-1"",""3,945644379E0"",""8,427590370E0""",684
"685,""2,298433632E-1"",""3,792415380E0"",""9,222464561E0""",685
"686,""-7,661445439E-2"",""3,485957623E0"",""9,864110947E0""",686
"687,""-2,298433632E-1"",""3,945644379E0"",""1,081221485E1""",687
"688,""2,298433632E-1"",""3,639186621E0"",""9,538499832E0""",688
"689,""-3,830722570E-1"",""4,098873138E0"",""8,590395927E0""",689
"690,""-8,427590132E-1"",""4,865017891E0"",""7,632715225E0""",690
"691,""-1,302445769E0"",""4,098873138E0"",""8,427590370E0""",691
"692,""-1,455674648E0"",""4,098873138E0"",""8,427590370E0""",692
"693,""-1,302445769E0"",""4,252102375E0"",""8,427590370E0""",693
"694,""-1,149216771E0"",""4,098873138E0"",""9,222464561E0""",694
"695,""-5,363011956E-1"",""4,098873138E0"",""8,906430244E0""",695
"696,""-2,221819162E0"",""5,018246651E0"",""8,427590370E0""",696
"697,""7,661445439E-2"",""4,405331135E0"",""7,316680431E0""",697
"698,""9,959878922E-1"",""3,332728863E0"",""8,274360657E0""",698
"699,""5,363011956E-1"",""3,945644379E0"",""8,427590370E0""",699
"700,""2,298433632E-1"",""3,485957623E0"",""1,018014526E1""",700
"701,""1,302445769E0"",""4,252102375E0"",""7,316680431E0""",701
"702,""1,302445769E0"",""5,018246651E0"",""6,042964935E0""",702
"703,""9,959878922E-1"",""5,324704647E0"",""7,316680431E0""",703
"704,""-6,895300746E-1"",""3,792415380E0"",""9,385271072E0""",704
"705,""-1,149216771E0"",""4,405331135E0"",""6,837840080E0""",705
"706,""-2,375048161E0"",""4,405331135E0"",""1,018014526E1""",706
"707,""-3,830722570E-1"",""4,558559895E0"",""6,521805286E0""",707
"708,""-2,298433632E-1"",""4,252102375E0"",""8,906430244E0""",708
"709,""3,830722570E-1"",""3,792415380E0"",""7,000645638E0""",709
"710,""3,830722570E-1"",""4,558559895E0"",""8,111555099E0""",710
"711,""-7,661445439E-2"",""3,332728863E0"",""9,701305389E0""",711
"712,""1,149216771E0"",""3,179499865E0"",""9,385271072E0""",712
"713,""2,298433632E-1"",""2,719813108E0"",""1,081221485E1""",713
"714,""7,661445439E-2"",""3,026270866E0"",""7,316680431E0""",714
"715,""-3,830722570E-1"",""3,026270866E0"",""7,469909191E0""",715
"716,""-2,298433632E-1"",""2,719813108E0"",""1,034295177E1""",716
"717,""-8,427590132E-1"",""5,018246651E0"",""8,274360657E0""",717
"718,""-1,915361404E0"",""3,945644379E0"",""8,743624687E0""",718
"719,""-2,681505919E0"",""4,098873138E0"",""7,000645638E0""",719
"720,""-6,895300746E-1"",""3,332728863E0"",""8,743624687E0""",720
"721,""7,661445439E-2"",""5,171475887E0"",""6,521805286E0""",721
"722,""-8,427590132E-1"",""4,865017891E0"",""9,864110947E0""",722
"723,""-6,895300746E-1"",""4,252102375E0"",""7,000645638E0""",723
"724,""-1,762132406E0"",""4,098873138E0"",""6,837840080E0""",724
"725,""7,661445439E-2"",""4,252102375E0"",""8,906430244E0""",725
"726,""1,302445769E0"",""3,332728863E0"",""8,427590370E0""",726
"727,""3,830722570E-1"",""3,179499865E0"",""1,018014526E1""",727
"728,""1,455674648E0"",""4,252102375E0"",""8,743624687E0""",728
"729,""9,959878922E-1"",""5,477933407E0"",""8,111555099E0""",729
"730,""2,298433632E-1"",""4,252102375E0"",""9,069235802E0""",730
"731,""-8,427590132E-1"",""3,945644379E0"",""9,222464561E0""",731
"732,""-1,455674648E0"",""4,558559895E0"",""8,274360657E0""",732
"733,""7,661445439E-2"",""3,792415380E0"",""8,111555099E0""",733
"734,""-6,895300746E-1"",""5,171475887E0"",""8,906430244E0""",734
"735,""5,363011956E-1"",""5,018246651E0"",""7,153874874E0""",735
"736,""8,427590132E-1"",""4,098873138E0"",""8,427590370E0""",736
"737,""-3,830722570E-1"",""3,945644379E0"",""1,018014526E1""",737
"738,""6,895300746E-1"",""3,945644379E0"",""9,385271072E0""",738
"739,""-3,830722570E-1"",""2,566584110E0"",""1,670195198E1""",739
"740,""1,149216771E0"",""5,324704647E0"",""8,906430244E0""",740
"741,""-1,302445769E0"",""5,477933407E0"",""8,906430244E0""",741
"742,""-5,363011956E-1"",""4,405331135E0"",""8,274360657E0""",742
"743,""3,830722570E-1"",""5,477933407E0"",""8,427590370E0""",743
"744,""2,221819162E0"",""6,550535679E0"",""8,743624687E0""",744
"745,""1,302445769E0"",""5,784391403E0"",""6,042964935E0""",745
"746,""9,959878922E-1"",""5,324704647E0"",""5,880159378E0""",746
"747,""1,762132406E0"",""4,405331135E0"",""8,427590370E0""",747
"748,""1,762132406E0"",""4,558559895E0"",""8,274360657E0""",748
"749,""1,762132406E0"",""4,865017891E0"",""8,274360657E0""",749
"750,""8,427590132E-1"",""5,784391403E0"",""8,274360657E0""",750
"751,""1,302445769E0"",""5,784391403E0"",""5,726930618E0""",751
"752,""-8,427590132E-1"",""5,324704647E0"",""7,948749542E0""",752
"753,""2,298433632E-1"",""5,171475887E0"",""8,427590370E0""",753
"754,""3,830722570E-1"",""4,405331135E0"",""7,469909191E0""",754
"755,""8,427590132E-1"",""4,865017891E0"",""6,837840080E0""",755
"756,""7,661445439E-2"",""4,865017891E0"",""9,069235802E0""",756
"757,""6,895300746E-1"",""4,711789131E0"",""8,743624687E0""",757
"758,""-9,959878922E-1"",""5,477933407E0"",""8,427590370E0""",758
"759,""-3,830722570E-1"",""4,405331135E0"",""9,069235802E0""",759
"760,""1,149216771E0"",""5,784391403E0"",""8,274360657E0""",760
"761,""3,830722570E-1"",""5,784391403E0"",""8,427590370E0""",761
"762,""2,298433632E-1"",""4,865017891E0"",""7,795520782E0""",762
"763,""3,830722570E-1"",""3,332728863E0"",""1,034295177E1""",763
"764,""2,298433632E-1"",""3,945644379E0"",""9,385271072E0""",764
"765,""2,068590164E0"",""5,018246651E0"",""7,153874874E0""",765
"766,""-1,915361404E0"",""2,719813108E0"",""7,000645638E0""",766
"767,""-6,512228489E0"",""1,187524080E0"",""4,769249916E0""",767
"768,""-6,665457726E0"",""-6,512228847E-1"",""7,153874874E0""",768
"769,""-1,915361404E0"",""1,953668594E0"",""7,948749542E0""",769
"770,""-9,959878922E-1"",""6,550535679E0"",""7,000645638E0""",770
"771,""-2,298433632E-1"",""4,865017891E0"",""7,153874874E0""",771
"772,""2,298433632E-1"",""4,098873138E0"",""8,274360657E0""",772
"773,""9,959878922E-1"",""3,179499865E0"",""8,274360657E0""",773
"774,""6,895300746E-1"",""3,485957623E0"",""1,097502041E1""",774
"775,""-8,427590132E-1"",""5,937620163E0"",""7,632715225E0""",775
"776,""-8,427590132E-1"",""5,784391403E0"",""8,111555099E0""",776
"777,""-7,661445439E-2"",""5,171475887E0"",""7,948749542E0""",777
"778,""2,298433632E-1"",""5,477933407E0"",""6,521805286E0""",778
"779,""-9,959878922E-1"",""3,792415380E0"",""9,864110947E0""",779
"780,""7,661445439E-2"",""3,485957623E0"",""8,743624687E0""",780
"781,""2,298433632E-1"",""3,792415380E0"",""9,385271072E0""",781
"782,""3,830722570E-1"",""3,179499865E0"",""1,001733971E1""",782
"783,""2,298433632E-1"",""3,026270866E0"",""9,701305389E0""",783
"784,""-3,830722570E-1"",""4,252102375E0"",""8,906430244E0""",784
"785,""-1,302445769E0"",""3,639186621E0"",""7,948749542E0""",785
"786,""-2,068590164E0"",""2,873042107E0"",""1,081221485E1""",786
"787,""-9,959878922E-1"",""3,179499865E0"",""9,538499832E0""",787
"788,""-2,298433632E-1"",""3,026270866E0"",""9,538499832E0""",788
"789,""7,661445439E-2"",""2,873042107E0"",""9,385271072E0""",789
"790,""9,959878922E-1"",""3,945644379E0"",""7,948749542E0""",790
"791,""7,661445439E-2"",""3,945644379E0"",""1,081221485E1""",791
"792,""-3,830722570E-1"",""3,792415380E0"",""6,358999729E0""",792
"793,""-2,298433632E-1"",""3,792415380E0"",""7,632715225E0""",793
"794,""-5,363011956E-1"",""3,332728863E0"",""1,081221485E1""",794
"795,""2,298433632E-1"",""3,179499865E0"",""9,538499832E0""",795
"796,""-2,298433632E-1"",""2,566584110E0"",""9,538499832E0""",796
"797,""-7,661445439E-2"",""2,873042107E0"",""1,113782597E1""",797
"798,""3,830722570E-1"",""2,873042107E0"",""9,864110947E0""",798
"799,""6,895300746E-1"",""2,719813108E0"",""9,538499832E0""",799
"800,""9,959878922E-1"",""3,179499865E0"",""8,111555099E0""",800
"801,""6,895300746E-1"",""3,026270866E0"",""9,701305389E0""",801
"802,""3,830722570E-1"",""3,485957623E0"",""8,274360657E0""",802
"803,""5,363011956E-1"",""3,485957623E0"",""8,906430244E0""",803
"804,""-3,830722570E-1"",""3,332728863E0"",""8,427590370E0""",804
"805,""-2,068590164E0"",""3,639186621E0"",""8,111555099E0""",805
"806,""-3,830722570E-1"",""5,784391403E0"",""8,427590370E0""",806
"807,""3,830722570E-1"",""6,397306919E0"",""8,111555099E0""",807
"808,""1,762132406E0"",""5,018246651E0"",""7,948749542E0""",808
"809,""1,455674648E0"",""5,018246651E0"",""8,743624687E0""",809
"810,""2,068590164E0"",""5,631162167E0"",""7,153874874E0""",810
"811,""-5,363011956E-1"",""5,171475887E0"",""1,049618053E1""",811
"812,""-5,363011956E-1"",""5,477933407E0"",""7,632715225E0""",812
"813,""-1,302445769E0"",""8,810662031E-1"",""9,222464561E0""",813
"814,""-8,427590132E-1"",""-9,576807022E-1"",""1,049618053E1""",814
"815,""-7,661445439E-2"",""-3,447650373E-1"",""8,427590370E0""",815
"816,""-2,298433632E-1"",""-3,830722719E-2"",""9,222464561E0""",816
"817,""-2,834734917E0"",""8,810662031E-1"",""2,036029053E1""",817
"818,""-9,959878922E-1"",""2,260126352E0"",""6,358999729E0""",818
"819,""-9,959878922E-1"",""2,681505978E-1"",""1,208592987E1""",819
"820,""-2,298433632E-1"",""-4,979939461E-1"",""1,304361057E1""",820
"821,""-1,302445769E0"",""1,187524080E0"",""7,000645638E0""",821
"822,""-1,762132406E0"",""1,187524080E0"",""7,632715225E0""",822
"823,""-9,959878922E-1"",""1,493981838E0"",""1,018014526E1""",823
"824,""5,363011956E-1"",""2,106897593E0"",""7,948749542E0""",824
"825,""-5,363011956E-1"",""4,558559895E0"",""9,538499832E0""",825
"826,""-2,298433632E-1"",""4,711789131E0"",""5,564124584E0""",826
"827,""-7,661445439E-2"",""5,937620163E0"",""5,085284233E0""",827
"828,""7,661445439E-2"",""4,252102375E0"",""1,097502041E1""",828
"829,""5,363011956E-1"",""5,324704647E0"",""7,000645638E0""",829
"830,""-1,762132406E0"",""4,711789131E0"",""6,675034523E0""",830
"831,""-2,681505919E0"",""4,098873138E0"",""1,034295177E1""",831
"832,""5,363011956E-1"",""3,026270866E0"",""8,274360657E0""",832
"833,""8,427590132E-1"",""4,558559895E0"",""5,248090267E0""",833
"834,""-2,375048161E0"",""4,558559895E0"",""1,081221485E1""",834
"835,""1,149216771E0"",""5,631162167E0"",""6,205770969E0""",835
"836,""6,895300746E-1"",""4,252102375E0"",""8,274360657E0""",836
"837,""-8,427590132E-1"",""6,244078159E0"",""6,358999729E0""",837
"838,""-3,830722570E-1"",""5,171475887E0"",""9,701305389E0""",838
"839,""1,455674648E0"",""6,090848923E0"",""6,205770969E0""",839
"840,""6,895300746E-1"",""5,477933407E0"",""7,316680431E0""",840
"841,""3,830722570E-1"",""5,631162167E0"",""8,427590370E0""",841
"842,""-2,987963676E0"",""3,026270866E0"",""1,431732655E1""",842
"843,""-2,221819162E0"",""3,485957623E0"",""1,018014526E1""",843
"844,""-3,830722570E-1"",""3,026270866E0"",""1,272757626E1""",844
"845,""3,830722570E-1"",""3,179499865E0"",""7,632715225E0""",845
"846,""5,363011956E-1"",""4,252102375E0"",""7,632715225E0""",846
"847,""-5,363011956E-1"",""2,106897593E0"",""7,795520782E0""",847
"848,""-8,427590132E-1"",""2,873042107E0"",""7,153874874E0""",848
"849,""5,363011956E-1"",""4,558559895E0"",""4,606443882E0""",849
"850,""-6,895300746E-1"",""2,260126352E0"",""1,097502041E1""",850
"851,""1,149216771E0"",""3,026270866E0"",""7,469909191E0""",851
"852,""-7,661445439E-2"",""2,873042107E0"",""9,222464561E0""",852
"853,""-7,661445439E-2"",""6,397306919E0"",""6,675034523E0""",853
"854,""-5,363011956E-1"",""3,026270866E0"",""8,743624687E0""",854
"855,""-5,363011956E-1"",""1,034295082E0"",""1,160709000E1""",855
"856,""-2,298433632E-1"",""1,493981838E0"",""1,335964584E1""",856
"857,""9,959878922E-1"",""3,485957623E0"",""9,222464561E0""",857
"858,""1,608903527E0"",""2,260126352E0"",""9,069235802E0""",858
"859,""1,762132406E0"",""3,485957623E0"",""8,111555099E0""",859
"860,""-2,298433632E-1"",""3,639186621E0"",""1,081221485E1""",860
"861,""-1,762132406E0"",""2,260126352E0"",""9,701305389E0""",861
"862,""-2,987963676E0"",""2,413355350E0"",""1,001733971E1""",862
"863,""-1,302445769E0"",""2,873042107E0"",""9,385271072E0""",863
"864,""1,608903527E0"",""4,213795066E-1"",""1,097502041E1""",864
"865,""-7,661445439E-2"",""1,493981838E0"",""8,906430244E0""",865
"866,""5,363011956E-1"",""2,719813108E0"",""7,795520782E0""",866
"867,""-1,302445769E0"",""2,873042107E0"",""9,864110947E0""",867
"868,""-2,987963676E0"",""3,026270866E0"",""1,176989555E1""",868
"869,""1,149216771E0"",""3,792415380E0"",""2,863465309E0""",869
"870,""1,762132406E0"",""3,026270866E0"",""3,658340216E0""",870
"871,""7,661445439E-2"",""4,865017891E0"",""7,316680431E0""",871
"872,""3,830722570E-1"",""3,639186621E0"",""1,208592987E1""",872
"873,""2,375048161E0"",""3,945644379E0"",""6,675034523E0""",873
"874,""2,375048161E0"",""4,252102375E0"",""4,932055473E0""",874
"875,""5,363011956E-1"",""1,800439715E0"",""1,145386124E1""",875
"876,""-6,895300746E-1"",""4,098873138E0"",""8,427590370E0""",876
"877,""3,830722570E-1"",""2,873042107E0"",""1,145386124E1""",877
"878,""-7,661445439E-2"",""1,149216816E-1"",""1,145386124E1""",878
"879,""1,915361404E0"",""2,106897593E0"",""8,906430244E0""",879
"880,""-7,661445439E-2"",""2,566584110E0"",""8,427590370E0""",880
"881,""1,302445769E0"",""1,647210717E0"",""8,590395927E0""",881
"882,""6,895300746E-1"",""1,953668594E0"",""6,358999729E0""",882
"883,""8,427590132E-1"",""3,639186621E0"",""1,034295177E1""",883
"884,""-7,661445439E-2"",""1,953668594E0"",""9,385271072E0""",884
"885,""-7,661445439E-2"",""1,647210717E0"",""1,001733971E1""",885
"886,""-9,959878922E-1"",""1,953668594E0"",""7,948749542E0""",886
"887,""3,830722570E-1"",""2,719813108E0"",""7,948749542E0""",887
"888,""-8,427590132E-1"",""1,340752959E0"",""1,145386124E1""",888
"889,""-1,455674648E0"",""1,187524080E0"",""1,065898609E1""",889
"890,""-3,830722570E-1"",""1,647210717E0"",""7,632715225E0""",890
"891,""9,959878922E-1"",""1,647210717E0"",""9,385271072E0""",891
"892,""-1,455674648E0"",""-3,447650373E-1"",""1,145386124E1""",892
"893,""-7,661445439E-2"",""2,681505978E-1"",""7,153874874E0""",893
"894,""-7,661445439E-2"",""7,278373241E-1"",""8,906430244E0""",894
"895,""-1,762132406E0"",""2,681505978E-1"",""1,049618053E1""",895
"896,""3,830722570E-1"",""1,800439715E0"",""5,880159378E0""",896
"897,""-7,661445439E-2"",""1,034295082E0"",""9,701305389E0""",897
"898,""3,830722570E-1"",""2,719813108E0"",""9,222464561E0""",898
"899,""-6,895300746E-1"",""2,413355350E0"",""7,948749542E0""",899
"900,""-1,915361404E0"",""1,953668594E0"",""9,538499832E0""",900
"901,""-8,427590132E-1"",""-4,979939461E-1"",""5,564124584E0""",901
"902,""8,427590132E-1"",""8,810662031E-1"",""1,193270111E1""",902
"903,""1,302445769E0"",""1,647210717E0"",""1,145386124E1""",903
"904,""1,455674648E0"",""1,953668594E0"",""8,906430244E0""",904
"905,""6,895300746E-1"",""1,647210717E0"",""8,274360657E0""",905
"906,""1,762132406E0"",""4,213795066E-1"",""8,590395927E0""",906
"907,""3,830722570E-1"",""8,810662031E-1"",""9,701305389E0""",907
"908,""-7,661445439E-2"",""2,873042107E0"",""9,701305389E0""",908
"909,""9,959878922E-1"",""3,332728863E0"",""9,864110947E0""",909
"910,""7,661445439E-2"",""1,953668594E0"",""6,837840080E0""",910
"911,""8,427590132E-1"",""2,413355350E0"",""8,274360657E0""",911
"912,""2,221819162E0"",""2,719813108E0"",""7,469909191E0""",912
"913,""2,298433632E-1"",""2,873042107E0"",""5,564124584E0""",913
"914,""-1,149216771E0"",""7,278373241E-1"",""1,511220074E1""",914
"915,""-1,149216771E0"",""1,340752959E0"",""1,065898609E1""",915
"916,""-3,830722570E-1"",""2,260126352E0"",""8,590395927E0""",916
"917,""1,149216771E0"",""2,260126352E0"",""6,521805286E0""",917
"918,""1,608903527E0"",""2,719813108E0"",""1,081221485E1""",918
"919,""5,363011956E-1"",""4,252102375E0"",""7,469909191E0""",919
"920,""-7,661445439E-2"",""2,566584110E0"",""9,538499832E0""",920
"921,""-1,149216771E0"",""2,566584110E0"",""1,001733971E1""",921
"922,""-1,455674648E0"",""1,493981838E0"",""1,034295177E1""",922
"923,""-5,363011956E-1"",""2,260126352E0"",""7,000645638E0""",923
"924,""-3,830722570E-1"",""2,106897593E0"",""8,906430244E0""",924
"925,""-2,298433632E-1"",""8,810662031E-1"",""1,448013210E1""",925
"926,""-1,149216771E0"",""1,800439715E0"",""1,176989555E1""",926
"927,""-7,661445439E-2"",""1,647210717E0"",""9,538499832E0""",927
"928,""-3,830722570E-1"",""1,034295082E0"",""9,864110947E0""",928
"929,""-1,149216771E0"",""2,719813108E0"",""1,034295177E1""",929
"930,""-3,830722570E-1"",""4,865017891E0"",""1,034295177E1""",930
"931,""-2,298433632E-1"",""4,098873138E0"",""8,590395927E0""",931
"932,""5,363011956E-1"",""2,873042107E0"",""9,701305389E0""",932
"933,""5,363011956E-1"",""1,953668594E0"",""1,018014526E1""",933
"934,""6,895300746E-1"",""2,873042107E0"",""8,906430244E0""",934
"935,""-9,959878922E-1"",""1,647210717E0"",""1,129105568E1""",935
"936,""8,427590132E-1"",""2,106897593E0"",""7,948749542E0""",936
"937,""5,363011956E-1"",""1,647210717E0"",""8,590395927E0""",937
"938,""5,363011956E-1"",""1,493981838E0"",""1,001733971E1""",938
"939,""2,298433632E-1"",""2,260126352E0"",""9,701305389E0""",939
"940,""-7,661445439E-2"",""2,719813108E0"",""1,129105568E1""",940
"941,""1,149216771E0"",""1,953668594E0"",""8,743624687E0""",941
"942,""-8,427590132E-1"",""5,018246651E0"",""8,590395927E0""",942
"943,""-2,298433632E-1"",""4,252102375E0"",""1,065898609E1""",943
"944,""-1,455674648E0"",""4,252102375E0"",""8,111555099E0""",944
"945,""-3,830722570E-1"",""3,332728863E0"",""1,081221485E1""",945
"946,""-3,830722570E-1"",""2,719813108E0"",""6,837840080E0""",946
"947,""-3,830722570E-1"",""2,260126352E0"",""1,065898609E1""",947
"948,""-7,661445439E-2"",""3,945644379E0"",""7,316680431E0""",948
"949,""1,915361404E0"",""5,324704647E0"",""6,205770969E0""",949
"950,""2,298433632E-1"",""2,566584110E0"",""6,521805286E0""",950
"951,""7,661445439E-2"",""2,260126352E0"",""9,538499832E0""",951
"952,""9,959878922E-1"",""2,566584110E0"",""1,049618053E1""",952
"953,""-6,895300746E-1"",""3,026270866E0"",""9,385271072E0""",953
"954,""-2,298433632E-1"",""1,953668594E0"",""1,463336086E1""",954
"955,""-9,959878922E-1"",""1,187524080E0"",""1,081221485E1""",955
"956,""-2,375048161E0"",""1,493981838E0"",""9,864110947E0""",956
"957,""-1,149216771E0"",""7,278373241E-1"",""1,463336086E1""",957
"958,""3,830722570E-1"",""2,873042107E0"",""7,948749542E0""",958
"959,""6,895300746E-1"",""1,647210717E0"",""9,385271072E0""",959
"960,""8,427590132E-1"",""3,792415380E0"",""1,001733971E1""",960
"961,""8,427590132E-1"",""2,106897593E0"",""1,081221485E1""",961
"962,""9,959878922E-1"",""1,647210717E0"",""9,701305389E0""",962
"963,""2,298433632E-1"",""1,647210717E0"",""7,469909191E0""",963
"964,""-1,608903527E0"",""1,340752959E0"",""1,193270111E1""",964
"965,""-5,363011956E-1"",""8,810662031E-1"",""1,001733971E1""",965
"966,""2,298433632E-1"",""1,034295082E0"",""9,538499832E0""",966
"967,""-7,661445439E-2"",""8,810662031E-1"",""1,065898609E1""",967
"968,""3,830722570E-1"",""1,647210717E0"",""9,864110947E0""",968
"969,""8,427590132E-1"",""2,873042107E0"",""4,606443882E0""",969
"970,""-1,762132406E0"",""1,493981838E0"",""1,383848572E1""",970
"971,""-5,363011956E-1"",""1,800439715E0"",""9,864110947E0""",971
"972,""3,830722570E-1"",""1,953668594E0"",""9,701305389E0""",972
"973,""1,149216771E0"",""1,493981838E0"",""1,049618053E1""",973
"974,""5,363011956E-1"",""1,800439715E0"",""8,743624687E0""",974
"975,""9,959878922E-1"",""1,800439715E0"",""1,018014526E1""",975
"976,""7,661445439E-2"",""2,566584110E0"",""7,795520782E0""",976
"977,""-2,221819162E0"",""4,405331135E0"",""9,222464561E0""",977
"978,""-3,830722570E-1"",""4,252102375E0"",""8,427590370E0""",978
"979,""-9,959878922E-1"",""3,026270866E0"",""1,129105568E1""",979
"980,""6,895300746E-1"",""2,566584110E0"",""1,018014526E1""",980
"981,""-1,302445769E0"",""1,953668594E0"",""1,034295177E1""",981
"982,""6,895300746E-1"",""2,873042107E0"",""9,701305389E0""",982
"983,""3,830722570E-1"",""1,187524080E0"",""1,241154194E1""",983
"984,""1,455674648E0"",""3,485957623E0"",""5,726930618E0""",984
"985,""-8,427590132E-1"",""2,873042107E0"",""1,367568016E1""",985
"986,""1,455674648E0"",""3,179499865E0"",""5,880159378E0""",986
"987,""-8,427590132E-1"",""3,026270866E0"",""6,521805286E0""",987
"988,""-1,149216771E0"",""1,953668594E0"",""8,427590370E0""",988
"989,""-1,455674648E0"",""3,332728863E0"",""8,427590370E0""",989
"990,""-2,298433632E-1"",""1,034295082E0"",""1,383848572E1""",990
"991,""1,915361404E0"",""8,810662031E-1"",""1,145386124E1""",991
"992,""8,427590132E-1"",""3,332728863E0"",""4,769249916E0""",992
"993,""1,915361404E0"",""4,405331135E0"",""3,811569214E0""",993
"994,""7,661445439E-2"",""2,413355350E0"",""9,222464561E0""",994
"995,""-1,302445769E0"",""2,719813108E0"",""9,069235802E0""",995
"996,""-3,830722570E-1"",""2,566584110E0"",""8,274360657E0""",996
"997,""-2,298433632E-1"",""1,493981838E0"",""1,081221485E1""",997
"998,""3,830722570E-1"",""2,106897593E0"",""6,042964935E0""",998
"999,""1,455674648E0"",""2,719813108E0"",""7,153874874E0""",999
"1000,""1,608903527E0"",""3,179499865E0"",""8,427590370E0""",1000
"1001,""5,363011956E-1"",""3,179499865E0"",""4,932055473E0""",1001
"1002,""7,661445439E-2"",""3,179499865E0"",""6,675034523E0""",1002
"1003,""-1,149216771E0"",""3,485957623E0"",""1,097502041E1""",1003
"1004,""-1,149216771E0"",""2,413355350E0"",""1,463336086E1""",1004
"1005,""8,427590132E-1"",""1,647210717E0"",""1,288080502E1""",1005
"1006,""3,141192675E0"",""3,485957623E0"",""7,153874874E0""",1006
"1007,""1,149216771E0"",""3,792415380E0"",""6,675034523E0""",1007
"1008,""-1,149216771E0"",""2,719813108E0"",""9,538499832E0""",1008
"1009,""-3,141192675E0"",""3,026270866E0"",""1,113782597E1""",1009
"1010,""-2,375048161E0"",""1,800439715E0"",""1,527500725E1""",1010
"1011,""-8,427590132E-1"",""2,719813108E0"",""7,316680431E0""",1011
"1012,""1,608903527E0"",""2,413355350E0"",""9,385271072E0""",1012
"1013,""-7,661445439E-2"",""1,493981838E0"",""1,320641613E1""",1013
"1014,""5,363011956E-1"",""2,719813108E0"",""6,521805286E0""",1014
"1015,""-1,915361404E0"",""1,953668594E0"",""1,479616642E1""",1015
"1016,""-5,363011956E-1"",""2,566584110E0"",""7,795520782E0""",1016
"1017,""1,149216771E0"",""3,179499865E0"",""8,274360657E0""",1017
"1018,""6,895300746E-1"",""3,639186621E0"",""1,034295177E1""",1018
"1019,""1,149216771E0"",""3,945644379E0"",""9,864110947E0""",1019
"1020,""1,302445769E0"",""1,647210717E0"",""1,304361057E1""",1020
"1021,""5,363011956E-1"",""3,332728863E0"",""7,153874874E0""",1021
"1022,""-2,375048161E0"",""4,405331135E0"",""1,160709000E1""",1022
"1023,""-9,959878922E-1"",""3,792415380E0"",""8,111555099E0""",1023
"1024,""8,427590132E-1"",""3,179499865E0"",""5,401319027E0""",1024
"1025,""1,302445769E0"",""3,332728863E0"",""9,385271072E0""",1025
"1026,""2,298433632E-1"",""2,873042107E0"",""1,049618053E1""",1026
"1027,""-2,298433632E-1"",""3,332728863E0"",""7,632715225E0""",1027
"1028,""-2,298433632E-1"",""2,413355350E0"",""1,097502041E1""",1028
"1029,""-6,895300746E-1"",""3,332728863E0"",""8,427590370E0""",1029
"1030,""6,895300746E-1"",""1,800439715E0"",""8,743624687E0""",1030
"1031,""2,298433632E-1"",""4,405331135E0"",""7,795520782E0""",1031
"1032,""2,298433632E-1"",""3,945644379E0"",""1,081221485E1""",1032
"1033,""-1,302445769E0"",""3,639186621E0"",""9,385271072E0""",1033
"1034,""-7,661445439E-2"",""5,171475887E0"",""6,675034523E0""",1034
"1035,""-2,298433632E-1"",""3,179499865E0"",""1,081221485E1""",1035
"1036,""1,608903527E0"",""3,639186621E0"",""6,358999729E0""",1036
"1037,""5,363011956E-1"",""3,945644379E0"",""8,274360657E0""",1037
"1038,""-7,661445439E-2"",""3,639186621E0"",""9,701305389E0""",1038
"1039,""-2,298433632E-1"",""3,485957623E0"",""8,906430244E0""",1039
"1040,""1,762132406E0"",""4,252102375E0"",""4,290409565E0""",1040
"1041,""5,363011956E-1"",""4,865017891E0"",""1,113782597E1""",1041
"1042,""-9,959878922E-1"",""4,098873138E0"",""1,065898609E1""",1042
"1043,""8,427590132E-1"",""5,784391403E0"",""7,000645638E0""",1043
"1044,""5,363011956E-1"",""3,179499865E0"",""9,864110947E0""",1044
"1045,""1,762132406E0"",""4,711789131E0"",""6,521805286E0""",1045
"1046,""2,681505919E0"",""6,244078159E0"",""8,427590370E0""",1046
"1047,""-1,149216771E0"",""6,397306919E0"",""1,145386124E1""",1047
"1048,""2,221819162E0"",""5,018246651E0"",""7,469909191E0""",1048
"1049,""8,427590132E-1"",""3,792415380E0"",""4,453215122E0""",1049
"1050,""6,895300746E-1"",""5,324704647E0"",""1,193270111E1""",1050
"1051,""1,762132406E0"",""4,098873138E0"",""8,743624687E0""",1051
"1052,""1,608903527E0"",""5,477933407E0"",""7,000645638E0""",1052
"1053,""8,427590132E-1"",""4,711789131E0"",""8,427590370E0""",1053
"1054,""5,363011956E-1"",""5,937620163E0"",""8,111555099E0""",1054
"1055,""8,427590132E-1"",""6,090848923E0"",""7,469909191E0""",1055
"1056,""1,608903527E0"",""5,784391403E0"",""8,111555099E0""",1056
"1057,""2,375048161E0"",""5,018246651E0"",""8,111555099E0""",1057
"1058,""2,221819162E0"",""4,865017891E0"",""7,795520782E0""",1058
"1059,""2,375048161E0"",""4,405331135E0"",""8,111555099E0""",1059
"1060,""8,427590132E-1"",""5,784391403E0"",""7,948749542E0""",1060
"1061,""6,895300746E-1"",""6,550535679E0"",""7,316680431E0""",1061
"1062,""6,895300746E-1"",""6,703764915E0"",""7,000645638E0""",1062
"1063,""5,363011956E-1"",""6,550535679E0"",""7,632715225E0""",1063
"1064,""-1,149216771E0"",""5,018246651E0"",""8,590395927E0""",1064
"1065,""9,959878922E-1"",""5,477933407E0"",""8,743624687E0""",1065
"1066,""-7,661445439E-2"",""4,865017891E0"",""8,111555099E0""",1066
"1067,""-7,661445439E-2"",""5,784391403E0"",""8,274360657E0""",1067
"1068,""2,221819162E0"",""5,018246651E0"",""8,743624687E0""",1068
"1069,""7,661445439E-2"",""5,324704647E0"",""9,222464561E0""",1069
"1070,""9,959878922E-1"",""4,252102375E0"",""8,906430244E0""",1070
"1071,""-3,830722570E-1"",""3,485957623E0"",""8,111555099E0""",1071
"1072,""8,427590132E-1"",""3,792415380E0"",""8,274360657E0""",1072
"1073,""6,895300746E-1"",""4,405331135E0"",""8,590395927E0""",1073
"1074,""5,363011956E-1"",""3,792415380E0"",""7,948749542E0""",1074
"1075,""1,149216771E0"",""3,639186621E0"",""8,111555099E0""",1075
"1076,""5,363011956E-1"",""3,945644379E0"",""8,590395927E0""",1076
"1077,""8,427590132E-1"",""5,018246651E0"",""8,274360657E0""",1077
"1078,""1,302445769E0"",""4,252102375E0"",""8,906430244E0""",1078
"1079,""7,661445439E-2"",""5,937620163E0"",""5,564124584E0""",1079
"1080,""7,661445439E-2"",""2,566584110E0"",""1,097502041E1""",1080
"1081,""-6,895300746E-1"",""3,332728863E0"",""9,864110947E0""",1081
"1082,""-8,427590132E-1"",""2,260126352E0"",""1,241154194E1""",1082
"1083,""3,830722570E-1"",""2,873042107E0"",""8,274360657E0""",1083
"1084,""-9,959878922E-1"",""3,945644379E0"",""7,000645638E0""",1084
"1085,""3,830722570E-1"",""3,179499865E0"",""9,538499832E0""",1085
"1086,""6,895300746E-1"",""2,260126352E0"",""1,097502041E1""",1086
"1087,""7,661445439E-2"",""4,098873138E0"",""1,034295177E1""",1087
"1088,""-1,302445769E0"",""2,873042107E0"",""8,743624687E0""",1088
"1089,""-3,830722570E-1"",""3,179499865E0"",""9,538499832E0""",1089
"1090,""-1,915361404E0"",""2,413355350E0"",""1,065898609E1""",1090
"1091,""-1,762132406E0"",""1,340752959E0"",""1,400129128E1""",1091
"1092,""2,298433632E-1"",""2,873042107E0"",""4,932055473E0""",1092
"1093,""1,149216771E0"",""4,558559895E0"",""6,358999729E0""",1093
"1094,""-2,068590164E0"",""4,098873138E0"",""9,069235802E0""",1094
"1095,""-9,959878922E-1"",""4,098873138E0"",""8,743624687E0""",1095
"1096,""3,830722570E-1"",""5,784391403E0"",""7,316680431E0""",1096
"1097,""2,298433632E-1"",""6,703764915E0"",""7,469909191E0""",1097
"1098,""-7,661445439E-2"",""6,703764915E0"",""7,948749542E0""",1098
"1099,""9,959878922E-1"",""4,558559895E0"",""9,385271072E0""",1099
"1100,""-3,830722570E-1"",""3,485957623E0"",""8,906430244E0""",1100
"1101,""6,895300746E-1"",""5,477933407E0"",""9,538499832E0""",1101
"1102,""7,661445439E-2"",""3,332728863E0"",""8,906430244E0""",1102
"1103,""1,608903527E0"",""3,332728863E0"",""6,675034523E0""",1103
"1104,""2,298433632E-1"",""3,639186621E0"",""7,000645638E0""",1104
"1105,""-1,149216771E0"",""3,026270866E0"",""9,069235802E0""",1105
"1106,""-2,221819162E0"",""3,332728863E0"",""1,081221485E1""",1106
"1107,""-2,221819162E0"",""2,566584110E0"",""1,224873543E1""",1107
"1108,""-1,302445769E0"",""2,413355350E0"",""9,864110947E0""",1108
"1109,""-2,298433632E-1"",""2,873042107E0"",""8,743624687E0""",1109
"1110,""2,298433632E-1"",""2,566584110E0"",""9,864110947E0""",1110
"1111,""7,661445439E-2"",""1,800439715E0"",""1,097502041E1""",1111
"1112,""1,608903527E0"",""2,873042107E0"",""9,701305389E0""",1112
"1113,""3,830722570E-1"",""2,260126352E0"",""9,069235802E0""",1113
"1114,""2,298433632E-1"",""2,719813108E0"",""9,069235802E0""",1114
"1115,""-8,427590132E-1"",""1,800439715E0"",""9,222464561E0""",1115
"1116,""-1,149216771E0"",""2,719813108E0"",""8,274360657E0""",1116
"1117,""2,298433632E-1"",""4,711789131E0"",""8,111555099E0""",1117
"1118,""-8,427590132E-1"",""1,800439715E0"",""1,081221485E1""",1118
"1119,""9,959878922E-1"",""4,098873138E0"",""6,205770969E0""",1119
"1120,""8,427590132E-1"",""1,493981838E0"",""8,743624687E0""",1120
"1121,""7,661445439E-2"",""2,106897593E0"",""7,469909191E0""",1121
"1122,""2,298433632E-1"",""3,026270866E0"",""9,538499832E0""",1122
"1123,""-8,427590132E-1"",""1,187524080E0"",""1,479616642E1""",1123
"1124,""-3,830722570E-1"",""2,566584110E0"",""6,521805286E0""",1124
"1125,""-2,298433632E-1"",""2,873042107E0"",""8,427590370E0""",1125
"1126,""-3,754108191E0"",""3,179499865E0"",""8,274360657E0""",1126
"1127,""-9,959878922E-1"",""1,340752959E0"",""1,224873543E1""",1127
"1128,""-2,834734917E0"",""2,566584110E0"",""1,001733971E1""",1128
"1129,""-2,681505919E0"",""1,187524080E0"",""1,049618053E1""",1129
"1130,""-2,528276920E0"",""1,493981838E0"",""8,906430244E0""",1130
"1131,""-1,302445769E0"",""4,558559895E0"",""9,864110947E0""",1131
"1132,""-2,298433632E-1"",""3,179499865E0"",""8,906430244E0""",1132
"1133,""-8,427590132E-1"",""3,792415380E0"",""9,222464561E0""",1133
"1134,""-6,895300746E-1"",""3,332728863E0"",""1,145386124E1""",1134
"1135,""-2,375048161E0"",""2,566584110E0"",""8,906430244E0""",1135
"1136,""-2,221819162E0"",""1,953668594E0"",""8,906430244E0""",1136
"1137,""-1,915361404E0"",""3,179499865E0"",""8,906430244E0""",1137
"1138,""-2,068590164E0"",""3,639186621E0"",""8,111555099E0""",1138
"1139,""-2,068590164E0"",""2,260126352E0"",""9,222464561E0""",1139
"1140,""1,302445769E0"",""2,260126352E0"",""1,001733971E1""",1140
"1141,""3,830722570E-1"",""2,413355350E0"",""7,153874874E0""",1141
"1142,""1,455674648E0"",""1,800439715E0"",""1,034295177E1""",1142
"1143,""7,661445439E-2"",""1,647210717E0"",""1,001733971E1""",1143
"1144,""1,149216771E0"",""2,106897593E0"",""9,701305389E0""",1144
"1145,""1,608903527E0"",""1,493981838E0"",""9,701305389E0""",1145
"1146,""-7,661445439E-2"",""2,566584110E0"",""9,538499832E0""",1146
"1147,""9,959878922E-1"",""1,800439715E0"",""1,065898609E1""",1147
"1148,""9,959878922E-1"",""3,179499865E0"",""7,153874874E0""",1148
"1149,""-8,427590132E-1"",""2,566584110E0"",""9,385271072E0""",1149
"1150,""-1,302445769E0"",""3,026270866E0"",""7,948749542E0""",1150
"1151,""5,363011956E-1"",""4,558559895E0"",""9,069235802E0""",1151
"1152,""2,298433632E-1"",""3,945644379E0"",""9,538499832E0""",1152
"1153,""-3,830722570E-1"",""1,340752959E0"",""8,111555099E0""",1153
"1154,""8,427590132E-1"",""-1,264138460E0"",""1,049618053E1""",1154
"1155,""5,363011956E-1"",""-6,512228847E-1"",""8,906430244E0""",1155
"1156,""9,959878922E-1"",""-6,512228847E-1"",""8,743624687E0""",1156
"1157,""-5,363011956E-1"",""-6,512228847E-1"",""1,081221485E1""",1157
"1158,""-2,221819162E0"",""-1,417367458E0"",""1,049618053E1""",1158
"1159,""-4,826710701E0"",""-1,264138460E0"",""8,111555099E0""",1159
"1160,""-4,060565948E0"",""2,719813108E0"",""4,453215122E0""",1160
"1161,""-3,907337189E0"",""1,034295082E0"",""1,081221485E1""",1161
"1162,""-6,895300746E-1"",""8,810662031E-1"",""4,932055473E0""",1162
"1163,""-2,987963676E0"",""2,681505978E-1"",""1,129105568E1""",1163
"1164,""-3,141192675E0"",""1,034295082E0"",""8,743624687E0""",1164
"1165,""-7,661445439E-2"",""2,681505978E-1"",""7,632715225E0""",1165
"1166,""-2,068590164E0"",""1,149216816E-1"",""9,385271072E0""",1166
"1167,""-4,213795185E0"",""1,647210717E0"",""9,069235802E0""",1167
"1168,""-2,834734917E0"",""-4,979939461E-1"",""1,145386124E1""",1168
"1169,""9,959878922E-1"",""-4,788403511E0"",""7,469909191E0""",1169
"1170,""-1,608903527E0"",""-4,328716755E0"",""9,385271072E0""",1170
"1171,""-2,375048161E0"",""-1,417367458E0"",""8,427590370E0""",1171
"1172,""-3,447650433E0"",""1,034295082E0"",""9,538499832E0""",1172
"1173,""-2,068590164E0"",""-1,877054095E0"",""1,208592987E1""",1173
"1174,""-3,754108191E0"",""-2,489969730E0"",""8,111555099E0""",1174
"1175,""-2,834734917E0"",""-4,979939461E-1"",""4,932055473E0""",1175
"1176,""-4,367023945E0"",""-2,030282974E0"",""1,018014526E1""",1176
"1177,""-3,141192675E0"",""-4,979939461E-1"",""9,701305389E0""",1177
"1178,""-4,520252705E0"",""-2,643198729E0"",""8,274360657E0""",1178
"1179,""-2,298433632E-1"",""5,631162167E0"",""9,069235802E0""",1179
"1180,""1,762132406E0"",""6,090848923E0"",""8,743624687E0""",1180
"1181,""-6,358999729E0"",""4,865017891E0"",""6,042964935E0""",1181
"1182,""4,520252705E0"",""1,187524080E0"",""8,590395927E0""",1182
"1183,""-5,363011956E-1"",""4,213795066E-1"",""1,049618053E1""",1183
"1184,""-2,298433632E-1"",""-3,447650373E-1"",""1,065898609E1""",1184
"1185,""2,834734917E0"",""4,213795066E-1"",""1,463336086E1""",1185
"1186,""-9,959878922E-1"",""-3,447650373E-1"",""9,222464561E0""",1186
"1187,""8,427590132E-1"",""2,681505978E-1"",""8,590395927E0""",1187
"1188,""-8,427590132E-1"",""-9,576807022E-1"",""9,069235802E0""",1188
"1189,""7,661445439E-2"",""5,746083856E-1"",""9,864110947E0""",1189
"1190,""7,661445439E-2"",""-1,110909581E0"",""1,065898609E1""",1190
"1191,""-7,661445439E-2"",""2,681505978E-1"",""1,097502041E1""",1191
"1192,""-1,455674648E0"",""7,278373241E-1"",""9,701305389E0""",1192
"1193,""-1,302445769E0"",""4,213795066E-1"",""9,069235802E0""",1193
"1194,""-1,455674648E0"",""1,149216816E-1"",""9,222464561E0""",1194
"1195,""8,427590132E-1"",""-4,979939461E-1"",""1,049618053E1""",1195
"1196,""-1,302445769E0"",""1,800439715E0"",""1,034295177E1""",1196
"1197,""1,455674648E0"",""6,090848923E0"",""5,401319027E0""",1197
"1198,""-1,302445769E0"",""3,639186621E0"",""8,274360657E0""",1198
"1199,""7,661445439E-2"",""2,413355350E0"",""7,469909191E0""",1199
"1200,""7,661445439E-2"",""4,252102375E0"",""1,081221485E1""",1200
"1201,""-6,895300746E-1"",""3,332728863E0"",""1,097502041E1""",1201
"1202,""-1,455674648E0"",""3,026270866E0"",""5,880159378E0""",1202
"1203,""-2,834734917E0"",""2,719813108E0"",""6,837840080E0""",1203
"1204,""-1,302445769E0"",""2,873042107E0"",""1,049618053E1""",1204
"1205,""-1,302445769E0"",""3,945644379E0"",""9,222464561E0""",1205
"1206,""-1,762132406E0"",""3,332728863E0"",""5,248090267E0""",1206
"1207,""-1,455674648E0"",""1,647210717E0"",""8,590395927E0""",1207
"1208,""7,661445439E-2"",""1,034295082E0"",""9,222464561E0""",1208
"1209,""-7,661445439E-2"",""3,179499865E0"",""1,113782597E1""",1209
"1210,""-5,363011956E-1"",""3,026270866E0"",""5,880159378E0""",1210
"1211,""-1,149216771E0"",""1,187524080E0"",""7,000645638E0""",1211
"1212,""-3,830722570E-1"",""2,681505978E-1"",""1,415452003E1""",1212
"1213,""-1,302445769E0"",""3,026270866E0"",""9,864110947E0""",1213
"1214,""-2,298433632E-1"",""2,566584110E0"",""6,837840080E0""",1214
"1215,""1,149216771E0"",""1,493981838E0"",""7,316680431E0""",1215
"1216,""6,895300746E-1"",""2,719813108E0"",""1,001733971E1""",1216
"1217,""2,298433632E-1"",""3,792415380E0"",""1,049618053E1""",1217
"1218,""-2,681505919E0"",""2,873042107E0"",""9,222464561E0""",1218
"1219,""4,826710701E0"",""-1,915361285E-1"",""6,042964935E0""",1219
"1220,""1,608903527E0"",""1,340752959E0"",""7,948749542E0""",1220
"1221,""-3,830722570E-1"",""-1,264138460E0"",""9,864110947E0""",1221
"1222,""6,895300746E-1"",""-9,576807022E-1"",""9,538499832E0""",1222
"1223,""-2,528276920E0"",""8,810662031E-1"",""9,701305389E0""",1223
"1224,""6,895300746E-1"",""-8,044517636E-1"",""9,864110947E0""",1224
"1225,""-8,504204750E0"",""-4,175487995E0"",""1,097502041E1""",1225
"1226,""-1,049618053E1"",""-2,643198729E0"",""5,401319027E0""",1226
"1227,""-6,358999729E0"",""-2,489969730E0"",""3,016694069E0""",1227
"1228,""-9,730035782E0"",""-2,643198729E0"",""3,658340216E0""",1228
"1229,""-2,375048161E0"",""-2,183511972E0"",""9,385271072E0""",1229
"1230,""4,213795185E0"",""1,034295082E0"",""8,590395927E0""",1230
"1231,""2,528276920E0"",""2,260126352E0"",""7,469909191E0""",1231
"1232,""2,221819162E0"",""1,340752959E0"",""7,469909191E0""",1232
"1233,""9,959878922E-1"",""5,477933407E0"",""8,427590370E0""",1233
"1234,""-7,661445439E-2"",""3,639186621E0"",""5,880159378E0""",1234
"1235,""8,427590132E-1"",""3,945644379E0"",""7,469909191E0""",1235
"1236,""-1,302445769E0"",""3,639186621E0"",""9,222464561E0""",1236
"1237,""-2,528276920E0"",""5,171475887E0"",""1,097502041E1""",1237
"1238,""-2,068590164E0"",""3,179499865E0"",""9,069235802E0""",1238
"1239,""7,661445439E-2"",""5,018246651E0"",""6,205770969E0""",1239
"1240,""-5,363011956E-1"",""3,945644379E0"",""3,495534420E0""",1240
"1241,""-6,895300746E-1"",""1,340752959E0"",""1,224873543E1""",1241
"1242,""-9,959878922E-1"",""3,485957623E0"",""9,701305389E0""",1242
"1243,""2,221819162E0"",""4,098873138E0"",""1,001733971E1""",1243
"1244,""-5,363011956E-1"",""3,639186621E0"",""6,358999729E0""",1244
"1245,""-2,298433632E-1"",""1,800439715E0"",""7,795520782E0""",1245
"1246,""1,608903527E0"",""-4,979939461E-1"",""1,511220074E1""",1246
"1247,""-8,427590132E-1"",""5,018246651E0"",""9,385271072E0""",1247
"1248,""-1,302445769E0"",""3,026270866E0"",""6,358999729E0""",1248
"1249,""1,302445769E0"",""1,187524080E0"",""6,675034523E0""",1249
"1250,""3,830722570E-1"",""1,800439715E0"",""7,632715225E0""",1250
"1251,""2,987963676E0"",""8,810662031E-1"",""1,224873543E1""",1251
"1252,""1,149216771E0"",""2,106897593E0"",""8,743624687E0""",1252
"1253,""5,363011956E-1"",""1,493981838E0"",""6,042964935E0""",1253
"1254,""4,826710701E0"",""3,332728863E0"",""1,256477070E1""",1254
"1255,""1,915361404E0"",""4,865017891E0"",""8,427590370E0""",1255
"1256,""2,068590164E0"",""2,873042107E0"",""6,042964935E0""",1256
"1257,""2,834734917E0"",""2,719813108E0"",""1,081221485E1""",1257
"1258,""9,959878922E-1"",""4,711789131E0"",""6,837840080E0""",1258
"1259,""-3,830722570E-1"",""3,639186621E0"",""9,701305389E0""",1259
"1260,""5,363011956E-1"",""6,550535679E0"",""7,153874874E0""",1260
"1261,""1,149216771E0"",""3,639186621E0"",""3,974374771E0""",1261
"1262,""1,608903527E0"",""6,397306919E0"",""6,042964935E0""",1262
"1263,""2,375048161E0"",""7,316680431E0"",""8,274360657E0""",1263
"1264,""2,221819162E0"",""3,945644379E0"",""6,358999729E0""",1264
"1265,""6,895300746E-1"",""4,252102375E0"",""7,000645638E0""",1265
"1266,""1,915361404E0"",""5,324704647E0"",""6,837840080E0""",1266
"1267,""9,959878922E-1"",""5,477933407E0"",""7,153874874E0""",1267
"1268,""9,959878922E-1"",""6,244078159E0"",""9,864110947E0""",1268
"1269,""1,149216771E0"",""4,405331135E0"",""5,726930618E0""",1269
"1270,""9,959878922E-1"",""5,784391403E0"",""6,837840080E0""",1270
"1271,""9,959878922E-1"",""6,397306919E0"",""9,069235802E0""",1271
"1272,""2,221819162E0"",""4,405331135E0"",""6,521805286E0""",1272
"1273,""2,298433632E-1"",""5,937620163E0"",""7,469909191E0""",1273
"1274,""2,987963676E0"",""5,324704647E0"",""1,145386124E1""",1274
"1275,""8,427590132E-1"",""3,179499865E0"",""7,000645638E0""",1275
"1276,""3,830722570E-1"",""4,405331135E0"",""6,837840080E0""",1276
"1277,""1,608903527E0"",""4,711789131E0"",""8,274360657E0""",1277
"1278,""-2,298433632E-1"",""4,865017891E0"",""9,222464561E0""",1278
"1279,""8,427590132E-1"",""1,647210717E0"",""6,837840080E0""",1279
"1280,""1,915361404E0"",""2,873042107E0"",""8,906430244E0""",1280
"1281,""2,068590164E0"",""3,945644379E0"",""1,081221485E1""",1281
"1282,""2,068590164E0"",""3,945644379E0"",""6,205770969E0""",1282
"1283,""2,068590164E0"",""8,810662031E-1"",""6,358999729E0""",1283
"1284,""2,068590164E0"",""1,647210717E0"",""7,000645638E0""",1284
"1285,""2,834734917E0"",""3,639186621E0"",""1,241154194E1""",1285
"1286,""-2,298433632E-1"",""4,252102375E0"",""8,274360657E0""",1286
"1287,""3,830722570E-1"",""2,106897593E0"",""6,837840080E0""",1287
"1288,""1,915361404E0"",""3,639186621E0"",""1,304361057E1""",1288
"1289,""8,427590132E-1"",""6,397306919E0"",""9,222464561E0""",1289
"1290,""1,149216771E0"",""3,485957623E0"",""6,042964935E0""",1290
"1291,""5,363011956E-1"",""1,340752959E0"",""6,521805286E0""",1291
"1292,""2,068590164E0"",""2,719813108E0"",""1,448013210E1""",1292
"1293,""6,895300746E-1"",""3,179499865E0"",""1,097502041E1""",1293
"1294,""3,830722570E-1"",""2,413355350E0"",""5,726930618E0""",1294
"1295,""2,528276920E0"",""8,810662031E-1"",""9,385271072E0""",1295
"1296,""1,915361404E0"",""2,719813108E0"",""9,864110947E0""",1296
"1297,""2,681505919E0"",""2,413355350E0"",""9,864110947E0""",1297
"1298,""-2,298433632E-1"",""2,873042107E0"",""7,153874874E0""",1298
"1299,""-5,363011956E-1"",""1,187524080E0"",""6,837840080E0""",1299
"1300,""2,987963676E0"",""-6,512228847E-1"",""1,829170036E1""",1300
"1301,""2,681505919E0"",""4,558559895E0"",""1,335964584E1""",1301
"1302,""3,830722570E-1"",""2,873042107E0"",""7,632715225E0""",1302
"1303,""3,830722570E-1"",""2,566584110E0"",""7,000645638E0""",1303
"1304,""2,298433632E-1"",""3,179499865E0"",""1,097502041E1""",1304
"1305,""1,915361404E0"",""3,179499865E0"",""1,160709000E1""",1305
"1306,""1,302445769E0"",""4,405331135E0"",""8,427590370E0""",1306
"1307,""1,302445769E0"",""3,639186621E0"",""4,453215122E0""",1307
"1308,""5,363011956E-1"",""2,719813108E0"",""7,316680431E0""",1308
"1309,""3,600879431E0"",""4,405331135E0"",""1,335964584E1""",1309
"1310,""4,826710701E0"",""6,090848923E0"",""1,081221485E1""",1310
"1311,""1,302445769E0"",""2,719813108E0"",""6,675034523E0""",1311
"1312,""2,681505919E0"",""5,018246651E0"",""8,111555099E0""",1312
"1313,""1,608903527E0"",""5,477933407E0"",""6,837840080E0""",1313
"1314,""9,959878922E-1"",""2,566584110E0"",""9,701305389E0""",1314
"1315,""2,987963676E0"",""-3,447650373E-1"",""1,829170036E1""",1315
"1316,""1,302445769E0"",""5,324704647E0"",""1,034295177E1""",1316
"1317,""3,830722570E-1"",""3,945644379E0"",""7,153874874E0""",1317
"1318,""3,830722570E-1"",""1,647210717E0"",""5,085284233E0""",1318
"1319,""1,455674648E0"",""3,945644379E0"",""8,906430244E0""",1319
"1320,""2,221819162E0"",""5,784391403E0"",""9,538499832E0""",1320
"1321,""1,302445769E0"",""6,550535679E0"",""9,069235802E0""",1321
"1322,""1,608903527E0"",""2,873042107E0"",""5,564124584E0""",1322
"1323,""1,149216771E0"",""2,719813108E0"",""4,769249916E0""",1323
"1324,""8,427590132E-1"",""2,413355350E0"",""6,837840080E0""",1324
"1325,""5,363011956E-1"",""2,566584110E0"",""6,205770969E0""",1325
"1326,""4,060565948E0"",""2,873042107E0"",""1,400129128E1""",1326
"1327,""-2,298433632E-1"",""5,171475887E0"",""1,304361057E1""",1327
"1328,""7,661445439E-2"",""5,477933407E0"",""1,049618053E1""",1328
"1329,""7,661445439E-2"",""4,098873138E0"",""4,137180328E0""",1329
"1330,""1,455674648E0"",""2,719813108E0"",""6,521805286E0""",1330
"1331,""2,834734917E0"",""2,873042107E0"",""1,304361057E1""",1331
"1332,""2,221819162E0"",""4,865017891E0"",""9,385271072E0""",1332
"1333,""3,907337189E0"",""3,945644379E0"",""9,538499832E0""",1333
"1334,""3,830722570E-1"",""3,332728863E0"",""5,880159378E0""",1334
"1335,""1,455674648E0"",""1,953668594E0"",""4,769249916E0""",1335
"1336,""3,830722570E-1"",""2,566584110E0"",""9,222464561E0""",1336
"1337,""5,363011956E-1"",""5,018246651E0"",""1,304361057E1""",1337
"1338,""2,298433632E-1"",""4,865017891E0"",""6,837840080E0""",1338
"1339,""3,830722570E-1"",""2,260126352E0"",""4,453215122E0""",1339
"1340,""1,762132406E0"",""2,260126352E0"",""6,042964935E0""",1340
"1341,""2,987963676E0"",""2,413355350E0"",""1,145386124E1""",1341
"1342,""3,600879431E0"",""3,945644379E0"",""1,272757626E1""",1342
"1343,""9,959878922E-1"",""4,865017891E0"",""5,564124584E0""",1343
"1344,""-8,427590132E-1"",""2,566584110E0"",""4,932055473E0""",1344
"1345,""2,375048161E0"",""5,746083856E-1"",""1,574427032E1""",1345
"1346,""5,363011956E-1"",""9,308655739E0"",""8,274360657E0""",1346
"1347,""3,830722570E-1"",""4,865017891E0"",""7,316680431E0""",1347
"1348,""1,608903527E0"",""1,800439715E0"",""3,811569214E0""",1348
"1349,""2,834734917E0"",""4,213795066E-1"",""1,765963173E1""",1349
"1350,""3,600879431E0"",""4,252102375E0"",""9,701305389E0""",1350
"1351,""1,149216771E0"",""2,413355350E0"",""6,358999729E0""",1351
"1352,""6,895300746E-1"",""1,800439715E0"",""5,564124584E0""",1352
"1353,""1,302445769E0"",""8,810662031E-1"",""8,906430244E0""",1353
"1354,""2,221819162E0"",""4,711789131E0"",""1,352245140E1""",1354
"1355,""1,762132406E0"",""4,558559895E0"",""1,145386124E1""",1355
"1356,""2,298433632E-1"",""3,485957623E0"",""4,453215122E0""",1356
"1357,""1,455674648E0"",""1,953668594E0"",""7,316680431E0""",1357
"1358,""2,375048161E0"",""2,413355350E0"",""9,222464561E0""",1358
"1359,""1,302445769E0"",""1,953668594E0"",""1,001733971E1""",1359
"1360,""3,294421434E0"",""2,260126352E0"",""9,222464561E0""",1360
"1361,""2,681505919E0"",""1,800439715E0"",""6,042964935E0""",1361
"1362,""1,149216771E0"",""1,187524080E0"",""7,469909191E0""",1362
"1363,""6,895300746E-1"",""3,179499865E0"",""1,208592987E1""",1363
"1364,""1,302445769E0"",""2,719813108E0"",""7,000645638E0""",1364
"1365,""9,959878922E-1"",""3,179499865E0"",""1,256477070E1""",1365
"1366,""3,294421434E0"",""3,179499865E0"",""7,948749542E0""",1366
"1367,""1,915361404E0"",""3,945644379E0"",""6,675034523E0""",1367
"1368,""8,427590132E-1"",""3,792415380E0"",""4,769249916E0""",1368
"1369,""-3,830722570E-1"",""5,324704647E0"",""5,401319027E0""",1369
"1370,""5,363011956E-1"",""5,477933407E0"",""1,001733971E1""",1370
"1371,""-5,363011956E-1"",""3,639186621E0"",""1,001733971E1""",1371
"1372,""7,661445439E-2"",""2,413355350E0"",""4,606443882E0""",1372
"1373,""-6,895300746E-1"",""1,647210717E0"",""6,675034523E0""",1373
"1374,""2,834734917E0"",""-7,852981567E0"",""8,743624687E0""",1374
"1375,""1,172201157E1"",""-6,627150536E0"",""4,932055473E0""",1375
"1376,""5,439626217E0"",""-1,723825216E0"",""2,537853718E0""",1376
"1377,""9,730035782E0"",""-2,949656487E0"",""2,221819162E0""",1377
"1378,""1,126232433E1"",""-6,014234543E0"",""3,495534420E0""",1378
"1379,""1,264138508E1"",""-1,110909581E0"",""3,811569214E0""",1379
"1380,""8,504204750E0"",""-4,481945515E0"",""4,606443882E0""",1380
"1381,""5,899312973E0"",""-2,949656487E0"",""3,179499865E0""",1381
"1382,""1,034295177E1"",""-6,473921299E0"",""8,111555099E0""",1382
"1383,""-7,661445439E-2"",""2,681505978E-1"",""1,065898609E1""",1383
"1384,""-3,600879431E0"",""-9,576807022E-1"",""1,018014526E1""",1384
"1385,""-1,915361404E0"",""2,681505978E-1"",""9,385271072E0""",1385
"1386,""-1,915361404E0"",""4,213795066E-1"",""9,385271072E0""",1386
"1387,""-2,068590164E0"",""7,278373241E-1"",""9,385271072E0""",1387
"1388,""-3,600879431E0"",""-3,447650373E-1"",""1,081221485E1""",1388
"1389,""6,665457726E0"",""-2,183511972E0"",""6,675034523E0""",1389
"1390,""4,520252705E0"",""-2,796427488E0"",""8,111555099E0""",1390
"1391,""9,959878922E-1"",""4,558559895E0"",""7,795520782E0""",1391
"1392,""4,826710701E0"",""2,566584110E0"",""1,097502041E1""",1392
"1393,""2,375048161E0"",""4,405331135E0"",""5,880159378E0""",1393
"1394,""1,915361404E0"",""3,332728863E0"",""3,658340216E0""",1394
"1395,""1,762132406E0"",""3,332728863E0"",""7,469909191E0""",1395
"1396,""2,068590164E0"",""3,179499865E0"",""8,906430244E0""",1396
"1397,""2,375048161E0"",""3,792415380E0"",""1,097502041E1""",1397
"1398,""2,375048161E0"",""3,179499865E0"",""9,701305389E0""",1398
"1399,""2,834734917E0"",""2,413355350E0"",""3,658340216E0""",1399
"1400,""2,681505919E0"",""3,485957623E0"",""8,743624687E0""",1400
"1401,""2,681505919E0"",""2,260126352E0"",""4,769249916E0""",1401
"1402,""5,363011956E-1"",""2,413355350E0"",""5,564124584E0""",1402
"1403,""6,052541733E0"",""1,953668594E0"",""1,193270111E1""",1403
"1404,""4,060565948E0"",""1,647210717E0"",""1,176989555E1""",1404
"1405,""4,367023945E0"",""3,179499865E0"",""1,352245140E1""",1405
"1406,""3,447650433E0"",""5,631162167E0"",""1,097502041E1""",1406
"1407,""3,600879431E0"",""4,405331135E0"",""1,065898609E1""",1407
"1408,""2,528276920E0"",""3,792415380E0"",""1,193270111E1""",1408
"1409,""2,528276920E0"",""3,332728863E0"",""9,701305389E0""",1409
"1410,""3,907337189E0"",""4,865017891E0"",""1,065898609E1""",1410
"1411,""2,068590164E0"",""4,252102375E0"",""6,837840080E0""",1411
"1412,""2,528276920E0"",""2,566584110E0"",""7,632715225E0""",1412
"1413,""3,754108191E0"",""2,106897593E0"",""8,427590370E0""",1413
"1414,""2,681505919E0"",""3,026270866E0"",""9,701305389E0""",1414
"1415,""3,447650433E0"",""1,034295082E0"",""9,385271072E0""",1415
"1416,""1,302445769E0"",""1,187524080E0"",""8,427590370E0""",1416
"1417,""5,363011956E-1"",""2,873042107E0"",""1,208592987E1""",1417
"1418,""1,455674648E0"",""6,856993675E0"",""7,795520782E0""",1418
"1419,""8,427590132E-1"",""1,800439715E0"",""8,743624687E0""",1419
"1420,""1,302445769E0"",""-4,979939461E-1"",""7,948749542E0""",1420
"1421,""3,907337189E0"",""-3,447650373E-1"",""1,113782597E1""",1421
"1422,""3,600879431E0"",""-3,830722719E-2"",""9,385271072E0""",1422
"1423,""2,068590164E0"",""-1,915361285E-1"",""7,795520782E0""",1423
"1424,""-3,830722570E-1"",""2,106897593E0"",""1,160709000E1""",1424
"1425,""7,661445439E-2"",""4,213795066E-1"",""1,018014526E1""",1425
"1426,""-3,830722570E-1"",""7,278373241E-1"",""8,906430244E0""",1426
"1427,""-6,895300746E-1"",""2,106897593E0"",""8,743624687E0""",1427
"1428,""-2,221819162E0"",""5,746083856E-1"",""8,590395927E0""",1428
"1429,""-1,455674648E0"",""-9,576807022E-1"",""9,538499832E0""",1429
"1430,""-1,915361404E0"",""1,340752959E0"",""9,864110947E0""",1430
"1431,""-1,762132406E0"",""2,106897593E0"",""9,222464561E0""",1431
"1432,""-2,068590164E0"",""2,260126352E0"",""9,069235802E0""",1432
"1433,""-1,915361404E0"",""1,647210717E0"",""9,222464561E0""",1433
"1434,""-2,528276920E0"",""1,647210717E0"",""9,222464561E0""",1434
"1435,""-3,830722570E-1"",""1,647210717E0"",""9,385271072E0""",1435
"1436,""-7,661445439E-2"",""1,647210717E0"",""9,538499832E0""",1436
"1437,""-1,302445769E0"",""1,953668594E0"",""9,385271072E0""",1437
"1438,""-5,363011956E-1"",""1,647210717E0"",""9,385271072E0""",1438
"1439,""-2,298433632E-1"",""8,810662031E-1"",""9,538499832E0""",1439
"1440,""-7,661445439E-2"",""1,187524080E0"",""1,001733971E1""",1440
"1441,""-9,959878922E-1"",""-4,979939461E-1"",""1,320641613E1""",1441
"1442,""-3,830722570E-1"",""5,746083856E-1"",""9,538499832E0""",1442
"1443,""-2,068590164E0"",""4,213795066E-1"",""9,222464561E0""",1443
"1444,""-5,363011956E-1"",""5,746083856E-1"",""9,538499832E0""",1444
"1445,""-8,427590132E-1"",""8,810662031E-1"",""9,069235802E0""",1445
"1446,""-6,895300746E-1"",""7,278373241E-1"",""9,538499832E0""",1446
"1447,""-3,830722570E-1"",""1,034295082E0"",""9,538499832E0""",1447
"1448,""7,661445439E-2"",""1,493981838E0"",""8,274360657E0""",1448
"1449,""6,895300746E-1"",""1,187524080E0"",""9,385271072E0""",1449
"1450,""9,959878922E-1"",""5,746083856E-1"",""9,701305389E0""",1450
"1451,""1,149216771E0"",""4,213795066E-1"",""9,701305389E0""",1451
"1452,""9,959878922E-1"",""5,746083856E-1"",""9,538499832E0""",1452
"1453,""9,959878922E-1"",""7,278373241E-1"",""9,701305389E0""",1453
"1454,""1,149216771E0"",""5,746083856E-1"",""9,538499832E0""",1454
"1455,""9,959878922E-1"",""7,278373241E-1"",""9,538499832E0""",1455
"1456,""1,302445769E0"",""7,278373241E-1"",""9,538499832E0""",1456
"1457,""1,302445769E0"",""8,810662031E-1"",""9,538499832E0""",1457
"1458,""1,302445769E0"",""8,810662031E-1"",""9,538499832E0""",1458
"1459,""9,959878922E-1"",""2,106897593E0"",""9,222464561E0""",1459
"1460,""8,427590132E-1"",""1,647210717E0"",""9,385271072E0""",1460
"1461,""9,959878922E-1"",""1,340752959E0"",""9,701305389E0""",1461
"1462,""5,363011956E-1"",""2,106897593E0"",""9,538499832E0""",1462
"1463,""-2,298433632E-1"",""3,179499865E0"",""9,538499832E0""",1463
"1464,""2,298433632E-1"",""2,413355350E0"",""9,222464561E0""",1464
"1465,""6,895300746E-1"",""2,413355350E0"",""9,222464561E0""",1465
"1466,""6,895300746E-1"",""2,413355350E0"",""9,222464561E0""",1466
"1467,""8,427590132E-1"",""2,413355350E0"",""9,222464561E0""",1467
"1468,""8,427590132E-1"",""2,413355350E0"",""9,222464561E0""",1468
"1469,""5,363011956E-1"",""2,413355350E0"",""9,222464561E0""",1469
"1470,""5,363011956E-1"",""2,413355350E0"",""9,222464561E0""",1470
"1471,""7,661445439E-2"",""2,413355350E0"",""9,222464561E0""",1471
"1472,""5,363011956E-1"",""2,260126352E0"",""9,222464561E0""",1472
"1473,""6,895300746E-1"",""1,647210717E0"",""9,701305389E0""",1473
"1474,""6,895300746E-1"",""1,953668594E0"",""9,222464561E0""",1474
"1475,""9,959878922E-1"",""1,493981838E0"",""9,701305389E0""",1475
"1476,""5,363011956E-1"",""1,800439715E0"",""9,385271072E0""",1476
"1477,""8,427590132E-1"",""2,413355350E0"",""9,222464561E0""",1477
"1478,""7,661445439E-2"",""3,639186621E0"",""9,222464561E0""",1478
"1479,""2,298433632E-1"",""1,647210717E0"",""9,385271072E0""",1479
"1480,""8,427590132E-1"",""-1,877054095E0"",""1,241154194E1""",1480
"1481,""7,661445439E-2"",""2,719813108E0"",""9,864110947E0""",1481
"1482,""3,830722570E-1"",""1,034295082E0"",""7,153874874E0""",1482
"1483,""1,149216771E0"",""-6,512228847E-1"",""9,538499832E0""",1483
"1484,""2,068590164E0"",""1,149216816E-1"",""1,097502041E1""",1484
"1485,""2,068590164E0"",""-3,830722719E-2"",""9,538499832E0""",1485
"1486,""2,375048161E0"",""-1,417367458E0"",""9,222464561E0""",1486
"1487,""2,528276920E0"",""-3,830722719E-2"",""7,153874874E0""",1487
"1488,""2,834734917E0"",""1,800439715E0"",""1,034295177E1""",1488
"1489,""2,068590164E0"",""1,647210717E0"",""8,427590370E0""",1489
"1490,""3,447650433E0"",""5,746083856E-1"",""9,538499832E0""",1490
"1491,""3,294421434E0"",""1,034295082E0"",""9,222464561E0""",1491
"1492,""2,987963676E0"",""1,149216816E-1"",""9,538499832E0""",1492
"1493,""4,213795185E0"",""-2,336740971E0"",""1,113782597E1""",1493
"1494,""-1,149216771E0"",""1,493981838E0"",""1,367568016E1""",1494
"1495,""2,298433632E-1"",""2,681505978E-1"",""9,701305389E0""",1495
"1496,""7,661445439E-2"",""2,681505978E-1"",""9,538499832E0""",1496
"1497,""-2,298433632E-1"",""4,213795066E-1"",""9,701305389E0""",1497
"1498,""7,661445439E-2"",""4,213795066E-1"",""9,701305389E0""",1498
"1499,""2,298433632E-1"",""2,681505978E-1"",""9,538499832E0""",1499
"1500,""7,661445439E-2"",""2,681505978E-1"",""9,701305389E0""",1500
"1501,""2,298433632E-1"",""1,149216816E-1"",""9,538499832E0""",1501
"1502,""2,298433632E-1"",""2,681505978E-1"",""9,538499832E0""",1502
"1503,""2,298433632E-1"",""2,681505978E-1"",""9,385271072E0""",1503
"1504,""7,661445439E-2"",""4,213795066E-1"",""9,701305389E0""",1504
"1505,""7,661445439E-2"",""2,681505978E-1"",""9,385271072E0""",1505
"1506,""7,661445439E-2"",""4,213795066E-1"",""9,538499832E0""",1506
"1507,""7,661445439E-2"",""2,681505978E-1"",""9,538499832E0""",1507
"1508,""7,661445439E-2"",""4,213795066E-1"",""9,538499832E0""",1508
"1509,""2,298433632E-1"",""2,681505978E-1"",""9,538499832E0""",1509
"1510,""7,661445439E-2"",""2,681505978E-1"",""9,538499832E0""",1510
"1511,""2,298433632E-1"",""4,213795066E-1"",""9,701305389E0""",1511
"1512,""7,661445439E-2"",""4,213795066E-1"",""9,538499832E0""",1512
"1513,""9,959878922E-1"",""5,746083856E-1"",""9,701305389E0""",1513
"1514,""7,661445439E-2"",""2,681505978E-1"",""9,701305389E0""",1514
"1515,""7,661445439E-2"",""2,681505978E-1"",""9,538499832E0""",1515
"1516,""3,830722570E-1"",""2,681505978E-1"",""9,701305389E0""",1516
"1517,""2,298433632E-1"",""2,681505978E-1"",""9,701305389E0""",1517
"1518,""2,298433632E-1"",""2,681505978E-1"",""9,538499832E0""",1518
"1519,""2,298433632E-1"",""4,213795066E-1"",""9,538499832E0""",1519
"1520,""2,298433632E-1"",""2,681505978E-1"",""9,538499832E0""",1520
"1521,""2,298433632E-1"",""4,213795066E-1"",""9,538499832E0""",1521
"1522,""7,661445439E-2"",""2,681505978E-1"",""9,701305389E0""",1522
"1523,""2,298433632E-1"",""2,681505978E-1"",""9,538499832E0""",1523
"1524,""7,661445439E-2"",""4,213795066E-1"",""9,538499832E0""",1524
"1525,""2,298433632E-1"",""4,213795066E-1"",""9,538499832E0""",1525
"1526,""2,298433632E-1"",""7,278373241E-1"",""9,701305389E0""",1526
"1527,""3,830722570E-1"",""2,681505978E-1"",""9,701305389E0""",1527
"1528,""2,298433632E-1"",""4,213795066E-1"",""9,538499832E0""",1528
"1529,""7,661445439E-2"",""2,681505978E-1"",""9,701305389E0""",1529
"1530,""2,298433632E-1"",""2,681505978E-1"",""9,701305389E0""",1530
"1531,""2,298433632E-1"",""2,681505978E-1"",""9,538499832E0""",1531
"1532,""2,298433632E-1"",""2,681505978E-1"",""9,701305389E0""",1532
"1533,""2,298433632E-1"",""2,681505978E-1"",""9,538499832E0""",1533
"1534,""2,298433632E-1"",""4,213795066E-1"",""9,701305389E0""",1534
"1535,""2,298433632E-1"",""4,213795066E-1"",""9,538499832E0""",1535
"1536,""2,298433632E-1"",""2,681505978E-1"",""9,538499832E0""",1536
"1537,""7,661445439E-2"",""4,213795066E-1"",""9,538499832E0""",1537
"1538,""2,298433632E-1"",""4,213795066E-1"",""9,385271072E0""",1538
"1539,""2,298433632E-1"",""2,681505978E-1"",""9,538499832E0""",1539
"1540,""2,298433632E-1"",""2,681505978E-1"",""9,538499832E0""",1540
"1541,""2,298433632E-1"",""2,681505978E-1"",""9,701305389E0""",1541
"1542,""2,298433632E-1"",""2,681505978E-1"",""9,538499832E0""",1542
"1543,""2,298433632E-1"",""2,681505978E-1"",""9,538499832E0""",1543
"1544,""2,298433632E-1"",""4,213795066E-1"",""9,701305389E0""",1544
"1545,""2,298433632E-1"",""4,213795066E-1"",""9,538499832E0""",1545
"1546,""2,298433632E-1"",""4,213795066E-1"",""9,701305389E0""",1546
"1547,""2,298433632E-1"",""2,681505978E-1"",""9,538499832E0""",1547
"1548,""2,298433632E-1"",""2,681505978E-1"",""9,538499832E0""",1548
"1549,""7,661445439E-2"",""2,681505978E-1"",""9,538499832E0""",1549
"1550,""2,298433632E-1"",""2,681505978E-1"",""9,701305389E0""",1550
"1551,""2,298433632E-1"",""2,681505978E-1"",""9,538499832E0""",1551
"1552,""2,298433632E-1"",""4,213795066E-1"",""9,701305389E0""",1552
"1553,""7,661445439E-2"",""2,681505978E-1"",""9,538499832E0""",1553
"1554,""2,298433632E-1"",""2,681505978E-1"",""9,385271072E0""",1554
"1555,""2,298433632E-1"",""2,681505978E-1"",""9,538499832E0""",1555
"1556,""3,830722570E-1"",""2,681505978E-1"",""9,701305389E0""",1556
"1557,""2,298433632E-1"",""2,681505978E-1"",""9,538499832E0""",1557
"1558,""2,298433632E-1"",""2,681505978E-1"",""9,538499832E0""",1558
"1559,""2,298433632E-1"",""4,213795066E-1"",""9,701305389E0""",1559
"1560,""2,298433632E-1"",""2,681505978E-1"",""9,538499832E0""",1560
"1561,""2,298433632E-1"",""2,681505978E-1"",""9,701305389E0""",1561
"1562,""2,298433632E-1"",""2,681505978E-1"",""9,538499832E0""",1562
"1563,""2,298433632E-1"",""2,681505978E-1"",""9,538499832E0""",1563
"1564,""7,661445439E-2"",""4,213795066E-1"",""9,538499832E0""",1564
"1565,""2,298433632E-1"",""2,681505978E-1"",""9,701305389E0""",1565
"1566,""2,298433632E-1"",""2,681505978E-1"",""9,538499832E0""",1566
"1567,""7,661445439E-2"",""2,681505978E-1"",""9,538499832E0""",1567
"1568,""3,830722570E-1"",""2,681505978E-1"",""9,538499832E0""",1568
"1569,""7,661445439E-2"",""2,681505978E-1"",""9,701305389E0""",1569
"1570,""2,298433632E-1"",""4,213795066E-1"",""9,538499832E0""",1570
"1571,""2,298433632E-1"",""2,681505978E-1"",""9,538499832E0""",1571
"1572,""2,298433632E-1"",""4,213795066E-1"",""9,701305389E0""",1572
"1573,""2,298433632E-1"",""5,746083856E-1"",""9,538499832E0""",1573
"1574,""2,298433632E-1"",""4,213795066E-1"",""9,538499832E0""",1574
"1575,""2,298433632E-1"",""4,213795066E-1"",""9,538499832E0""",1575
"1576,""2,298433632E-1"",""4,213795066E-1"",""9,538499832E0""",1576
"1577,""2,298433632E-1"",""4,213795066E-1"",""9,538499832E0""",1577
"1578,""7,661445439E-2"",""4,213795066E-1"",""9,538499832E0""",1578
"1579,""7,661445439E-2"",""5,746083856E-1"",""9,538499832E0""",1579
"1580,""2,298433632E-1"",""4,213795066E-1"",""9,538499832E0""",1580
"1581,""2,298433632E-1"",""4,213795066E-1"",""9,701305389E0""",1581
"1582,""2,298433632E-1"",""4,213795066E-1"",""9,538499832E0""",1582
"1583,""3,830722570E-1"",""5,746083856E-1"",""9,701305389E0""",1583
"1584,""2,298433632E-1"",""2,681505978E-1"",""9,538499832E0""",1584
"1585,""2,298433632E-1"",""4,213795066E-1"",""9,701305389E0""",1585
"1586,""7,661445439E-2"",""4,213795066E-1"",""9,701305389E0""",1586
"1587,""2,298433632E-1"",""5,746083856E-1"",""9,701305389E0""",1587
"1588,""2,298433632E-1"",""4,213795066E-1"",""9,538499832E0""",1588
"1589,""2,298433632E-1"",""4,213795066E-1"",""9,538499832E0""",1589
"1590,""2,298433632E-1"",""4,213795066E-1"",""9,538499832E0""",1590
"1591,""2,298433632E-1"",""2,681505978E-1"",""9,538499832E0""",1591
"1592,""7,661445439E-2"",""1,149216816E-1"",""9,701305389E0""",1592
"1593,""2,298433632E-1"",""2,681505978E-1"",""9,701305389E0""",1593
"1594,""2,298433632E-1"",""2,681505978E-1"",""9,538499832E0""",1594
"1595,""2,298433632E-1"",""2,681505978E-1"",""9,538499832E0""",1595
"1596,""2,298433632E-1"",""2,681505978E-1"",""9,538499832E0""",1596
"1597,""3,830722570E-1"",""4,213795066E-1"",""9,701305389E0""",1597
"1598,""2,298433632E-1"",""2,681505978E-1"",""9,538499832E0""",1598
"1599,""2,298433632E-1"",""2,681505978E-1"",""9,701305389E0""",1599
"1600,""2,298433632E-1"",""2,681505978E-1"",""9,538499832E0""",1600
"1601,""7,661445439E-2"",""2,681505978E-1"",""9,538499832E0""",1601
"1602,""3,830722570E-1"",""2,681505978E-1"",""9,701305389E0""",1602
"1603,""2,298433632E-1"",""2,681505978E-1"",""9,538499832E0""",1603
"1604,""3,830722570E-1"",""4,213795066E-1"",""9,701305389E0""",1604
"1605,""3,830722570E-1"",""2,681505978E-1"",""9,701305389E0""",1605
"1606,""2,298433632E-1"",""1,149216816E-1"",""9,538499832E0""",1606
"1607,""3,830722570E-1"",""2,681505978E-1"",""9,538499832E0""",1607
"1608,""3,830722570E-1"",""1,149216816E-1"",""9,538499832E0""",1608
"1609,""3,830722570E-1"",""2,681505978E-1"",""9,538499832E0""",1609
"1610,""3,830722570E-1"",""2,681505978E-1"",""9,701305389E0""",1610
"1611,""2,298433632E-1"",""2,681505978E-1"",""9,538499832E0""",1611
"1612,""3,830722570E-1"",""2,681505978E-1"",""9,538499832E0""",1612
"1613,""3,830722570E-1"",""2,681505978E-1"",""9,701305389E0""",1613
"1614,""2,298433632E-1"",""2,681505978E-1"",""9,701305389E0""",1614
"1615,""2,298433632E-1"",""2,681505978E-1"",""9,538499832E0""",1615
"1616,""2,298433632E-1"",""4,213795066E-1"",""9,701305389E0""",1616
"1617,""2,298433632E-1"",""2,681505978E-1"",""9,701305389E0""",1617
"1618,""3,830722570E-1"",""2,681505978E-1"",""9,538499832E0""",1618
"1619,""3,830722570E-1"",""2,681505978E-1"",""9,538499832E0""",1619
"1620,""3,830722570E-1"",""2,681505978E-1"",""9,701305389E0""",1620
"1621,""3,830722570E-1"",""2,681505978E-1"",""9,538499832E0""",1621
"1622,""2,298433632E-1"",""2,681505978E-1"",""9,538499832E0""",1622
"1623,""2,298433632E-1"",""2,681505978E-1"",""9,538499832E0""",1623
"1624,""3,830722570E-1"",""2,681505978E-1"",""9,538499832E0""",1624
"1625,""3,830722570E-1"",""2,681505978E-1"",""9,538499832E0""",1625
"1626,""2,298433632E-1"",""2,681505978E-1"",""9,538499832E0""",1626
"1627,""2,298433632E-1"",""2,681505978E-1"",""9,538499832E0""",1627
"1628,""3,830722570E-1"",""2,681505978E-1"",""9,701305389E0""",1628
"1629,""3,830722570E-1"",""2,681505978E-1"",""9,538499832E0""",1629
"1630,""3,830722570E-1"",""1,149216816E-1"",""9,701305389E0""",1630
"1631,""2,298433632E-1"",""2,681505978E-1"",""9,538499832E0""",1631
"1632,""2,298433632E-1"",""2,681505978E-1"",""9,701305389E0""",1632
"1633,""3,830722570E-1"",""2,681505978E-1"",""9,701305389E0""",1633
"1634,""3,830722570E-1"",""2,681505978E-1"",""9,538499832E0""",1634
"1635,""2,298433632E-1"",""4,213795066E-1"",""9,701305389E0""",1635
"1636,""3,830722570E-1"",""2,681505978E-1"",""9,701305389E0""",1636
"1637,""2,298433632E-1"",""1,149216816E-1"",""9,538499832E0""",1637
"1638,""3,830722570E-1"",""2,681505978E-1"",""9,538499832E0""",1638
"1639,""2,298433632E-1"",""2,681505978E-1"",""9,538499832E0""",1639
"1640,""3,830722570E-1"",""2,681505978E-1"",""9,538499832E0""",1640
"1641,""3,830722570E-1"",""2,681505978E-1"",""9,701305389E0""",1641
"1642,""3,830722570E-1"",""4,213795066E-1"",""9,701305389E0""",1642
"1643,""3,830722570E-1"",""2,681505978E-1"",""9,538499832E0""",1643
"1644,""2,298433632E-1"",""2,681505978E-1"",""9,701305389E0""",1644
"1645,""3,830722570E-1"",""2,681505978E-1"",""9,701305389E0""",1645
"1646,""2,298433632E-1"",""2,681505978E-1"",""9,538499832E0""",1646
"1647,""3,830722570E-1"",""2,681505978E-1"",""9,701305389E0""",1647
"1648,""2,298433632E-1"",""2,681505978E-1"",""9,538499832E0""",1648
"1649,""3,830722570E-1"",""4,213795066E-1"",""9,538499832E0""",1649
"1650,""3,830722570E-1"",""4,213795066E-1"",""9,538499832E0""",1650
"1651,""3,830722570E-1"",""2,681505978E-1"",""9,701305389E0""",1651
"1652,""3,830722570E-1"",""2,681505978E-1"",""9,701305389E0""",1652
"1653,""3,830722570E-1"",""2,681505978E-1"",""9,538499832E0""",1653
"1654,""3,830722570E-1"",""2,681505978E-1"",""9,538499832E0""",1654
"1655,""2,298433632E-1"",""2,681505978E-1"",""9,538499832E0""",1655
"1656,""3,830722570E-1"",""2,681505978E-1"",""9,538499832E0""",1656
"1657,""3,830722570E-1"",""2,681505978E-1"",""9,701305389E0""",1657
"1658,""2,298433632E-1"",""4,213795066E-1"",""9,701305389E0""",1658
"1659,""3,830722570E-1"",""4,213795066E-1"",""9,701305389E0""",1659
"1660,""3,830722570E-1"",""2,681505978E-1"",""9,538499832E0""",1660
"1661,""3,830722570E-1"",""4,213795066E-1"",""9,538499832E0""",1661
"1662,""3,830722570E-1"",""2,681505978E-1"",""9,538499832E0""",1662
"1663,""2,298433632E-1"",""2,681505978E-1"",""9,538499832E0""",1663
"1664,""3,830722570E-1"",""4,213795066E-1"",""9,538499832E0""",1664
"1665,""3,830722570E-1"",""4,213795066E-1"",""9,538499832E0""",1665
"1666,""3,830722570E-1"",""2,681505978E-1"",""9,538499832E0""",1666
"1667,""3,830722570E-1"",""2,681505978E-1"",""9,701305389E0""",1667
"1668,""3,830722570E-1"",""2,681505978E-1"",""9,538499832E0""",1668
"1669,""3,830722570E-1"",""4,213795066E-1"",""9,538499832E0""",1669
"1670,""2,298433632E-1"",""4,213795066E-1"",""9,538499832E0""",1670
"1671,""2,298433632E-1"",""4,213795066E-1"",""9,538499832E0""",1671
"1672,""3,830722570E-1"",""2,681505978E-1"",""9,701305389E0""",1672
"1673,""3,830722570E-1"",""2,681505978E-1"",""9,538499832E0""",1673
"1674,""3,830722570E-1"",""2,681505978E-1"",""9,701305389E0""",1674
"1675,""3,830722570E-1"",""4,213795066E-1"",""9,538499832E0""",1675
"1676,""3,830722570E-1"",""4,213795066E-1"",""9,538499832E0""",1676
"1677,""3,830722570E-1"",""4,213795066E-1"",""9,538499832E0""",1677
"1678,""2,298433632E-1"",""2,681505978E-1"",""9,538499832E0""",1678
"1679,""3,830722570E-1"",""4,213795066E-1"",""9,538499832E0""",1679
"1680,""3,830722570E-1"",""5,746083856E-1"",""9,538499832E0""",1680
"1681,""3,830722570E-1"",""4,213795066E-1"",""9,538499832E0""",1681
"1682,""3,830722570E-1"",""4,213795066E-1"",""9,538499832E0""",1682
"1683,""2,298433632E-1"",""2,681505978E-1"",""9,538499832E0""",1683
"1684,""2,298433632E-1"",""2,681505978E-1"",""9,538499832E0""",1684
"1685,""2,298433632E-1"",""2,681505978E-1"",""9,538499832E0""",1685
"1686,""3,830722570E-1"",""2,681505978E-1"",""9,538499832E0""",1686
"1687,""3,830722570E-1"",""2,681505978E-1"",""9,538499832E0""",1687
"1688,""3,830722570E-1"",""4,213795066E-1"",""9,538499832E0""",1688
"1689,""3,830722570E-1"",""2,681505978E-1"",""9,538499832E0""",1689
"1690,""3,830722570E-1"",""4,213795066E-1"",""9,538499832E0""",1690
"1691,""2,298433632E-1"",""2,681505978E-1"",""9,701305389E0""",1691
"1692,""3,830722570E-1"",""2,681505978E-1"",""9,538499832E0""",1692
"1693,""3,830722570E-1"",""2,681505978E-1"",""9,701305389E0""",1693
"1694,""2,298433632E-1"",""2,681505978E-1"",""9,538499832E0""",1694
"1695,""3,830722570E-1"",""4,213795066E-1"",""9,538499832E0""",1695
"1696,""3,830722570E-1"",""2,681505978E-1"",""9,538499832E0""",1696
"1697,""3,830722570E-1"",""2,681505978E-1"",""9,538499832E0""",1697
"1698,""3,830722570E-1"",""4,213795066E-1"",""9,538499832E0""",1698
"1699,""3,830722570E-1"",""2,681505978E-1"",""9,701305389E0""",1699
"1700,""3,830722570E-1"",""4,213795066E-1"",""9,538499832E0""",1700
"1701,""2,298433632E-1"",""2,681505978E-1"",""9,538499832E0""",1701
"1702,""3,830722570E-1"",""2,681505978E-1"",""9,538499832E0""",1702
"1703,""2,298433632E-1"",""2,681505978E-1"",""9,701305389E0""",1703
"1704,""3,830722570E-1"",""4,213795066E-1"",""9,538499832E0""",1704
"1705,""3,830722570E-1"",""2,681505978E-1"",""9,538499832E0""",1705
"1706,""3,830722570E-1"",""4,213795066E-1"",""9,701305389E0""",1706
"1707,""3,830722570E-1"",""2,681505978E-1"",""9,538499832E0""",1707
"1708,""3,830722570E-1"",""2,681505978E-1"",""9,538499832E0""",1708
"1709,""3,830722570E-1"",""2,681505978E-1"",""9,538499832E0""",1709
"1710,""2,298433632E-1"",""4,213795066E-1"",""9,538499832E0""",1710
"1711,""2,298433632E-1"",""4,213795066E-1"",""9,538499832E0""",1711
"1712,""3,830722570E-1"",""4,213795066E-1"",""9,538499832E0""",1712
"1713,""2,298433632E-1"",""4,213795066E-1"",""9,538499832E0""",1713
"1714,""5,363011956E-1"",""4,213795066E-1"",""9,701305389E0""",1714
"1715,""2,298433632E-1"",""2,681505978E-1"",""9,538499832E0""",1715
"1716,""2,298433632E-1"",""4,213795066E-1"",""9,538499832E0""",1716
"1717,""3,830722570E-1"",""4,213795066E-1"",""9,538499832E0""",1717
"1718,""3,830722570E-1"",""4,213795066E-1"",""9,538499832E0""",1718
"1719,""2,298433632E-1"",""2,681505978E-1"",""9,538499832E0""",1719
"1720,""2,298433632E-1"",""4,213795066E-1"",""9,538499832E0""",1720
"1721,""3,830722570E-1"",""4,213795066E-1"",""9,701305389E0""",1721
"1722,""3,830722570E-1"",""2,681505978E-1"",""9,538499832E0""",1722
"1723,""2,298433632E-1"",""2,681505978E-1"",""9,538499832E0""",1723
"1724,""2,298433632E-1"",""2,681505978E-1"",""9,538499832E0""",1724
"1725,""3,830722570E-1"",""2,681505978E-1"",""9,538499832E0""",1725
"1726,""2,298433632E-1"",""2,681505978E-1"",""9,538499832E0""",1726
"1727,""5,363011956E-1"",""2,681505978E-1"",""9,538499832E0""",1727
"1728,""3,830722570E-1"",""4,213795066E-1"",""9,538499832E0""",1728
"1729,""2,298433632E-1"",""4,213795066E-1"",""9,538499832E0""",1729
"1730,""3,830722570E-1"",""4,213795066E-1"",""9,538499832E0""",1730
"1731,""3,830722570E-1"",""4,213795066E-1"",""9,538499832E0""",1731
"1732,""2,298433632E-1"",""4,213795066E-1"",""9,538499832E0""",1732
"1733,""3,830722570E-1"",""4,213795066E-1"",""9,538499832E0""",1733
"1734,""3,830722570E-1"",""4,213795066E-1"",""9,701305389E0""",1734
"1735,""2,298433632E-1"",""4,213795066E-1"",""9,538499832E0""",1735
"1736,""3,830722570E-1"",""4,213795066E-1"",""9,701305389E0""",1736
"1737,""7,661445439E-2"",""2,681505978E-1"",""9,701305389E0""",1737
"1738,""3,830722570E-1"",""2,681505978E-1"",""9,701305389E0""",1738
"1739,""3,830722570E-1"",""2,681505978E-1"",""9,701305389E0""",1739
"1740,""3,830722570E-1"",""4,213795066E-1"",""9,538499832E0""",1740
"1741,""3,830722570E-1"",""2,681505978E-1"",""9,701305389E0""",1741
"1742,""3,830722570E-1"",""2,681505978E-1"",""9,538499832E0""",1742
"1743,""2,298433632E-1"",""4,213795066E-1"",""9,538499832E0""",1743
"1744,""3,830722570E-1"",""4,213795066E-1"",""9,538499832E0""",1744
"1745,""3,830722570E-1"",""5,746083856E-1"",""9,538499832E0""",1745
"1746,""3,830722570E-1"",""2,681505978E-1"",""9,538499832E0""",1746
"1747,""2,298433632E-1"",""2,681505978E-1"",""9,538499832E0""",1747
"1748,""3,830722570E-1"",""2,681505978E-1"",""9,538499832E0""",1748
"1749,""2,298433632E-1"",""4,213795066E-1"",""9,538499832E0""",1749
"1750,""3,830722570E-1"",""4,213795066E-1"",""9,538499832E0""",1750
"1751,""3,830722570E-1"",""4,213795066E-1"",""9,538499832E0""",1751
"1752,""3,830722570E-1"",""2,681505978E-1"",""9,538499832E0""",1752
"1753,""3,830722570E-1"",""2,681505978E-1"",""9,701305389E0""",1753
"1754,""2,298433632E-1"",""4,213795066E-1"",""9,701305389E0""",1754
"1755,""2,298433632E-1"",""4,213795066E-1"",""9,538499832E0""",1755
"1756,""3,830722570E-1"",""2,681505978E-1"",""9,701305389E0""",1756
"1757,""3,830722570E-1"",""2,681505978E-1"",""9,538499832E0""",1757
"1758,""3,830722570E-1"",""2,681505978E-1"",""9,538499832E0""",1758
"1759,""3,830722570E-1"",""4,213795066E-1"",""9,538499832E0""",1759
"1760,""3,830722570E-1"",""2,681505978E-1"",""9,701305389E0""",1760
"1761,""2,298433632E-1"",""2,681505978E-1"",""9,538499832E0""",1761
"1762,""3,830722570E-1"",""2,681505978E-1"",""9,538499832E0""",1762
"1763,""3,830722570E-1"",""2,681505978E-1"",""9,701305389E0""",1763
"1764,""3,830722570E-1"",""2,681505978E-1"",""9,538499832E0""",1764
"1765,""3,830722570E-1"",""4,213795066E-1"",""9,538499832E0""",1765
"1766,""3,830722570E-1"",""4,213795066E-1"",""9,701305389E0""",1766
"1767,""2,298433632E-1"",""2,681505978E-1"",""9,538499832E0""",1767
"1768,""2,298433632E-1"",""4,213795066E-1"",""9,538499832E0""",1768
"1769,""2,298433632E-1"",""2,681505978E-1"",""9,701305389E0""",1769
"1770,""3,830722570E-1"",""4,213795066E-1"",""9,538499832E0""",1770
"1771,""3,830722570E-1"",""2,681505978E-1"",""9,538499832E0""",1771
"1772,""3,830722570E-1"",""4,213795066E-1"",""9,701305389E0""",1772
"1773,""3,830722570E-1"",""2,681505978E-1"",""9,701305389E0""",1773
"1774,""3,830722570E-1"",""2,681505978E-1"",""9,538499832E0""",1774
"1775,""3,830722570E-1"",""4,213795066E-1"",""9,538499832E0""",1775
"1776,""3,830722570E-1"",""4,213795066E-1"",""9,538499832E0""",1776
"1777,""3,830722570E-1"",""2,681505978E-1"",""9,701305389E0""",1777
"1778,""2,298433632E-1"",""4,213795066E-1"",""9,701305389E0""",1778
"1779,""2,298433632E-1"",""2,681505978E-1"",""9,538499832E0""",1779
"1780,""2,298433632E-1"",""2,681505978E-1"",""9,538499832E0""",1780
"1781,""2,298433632E-1"",""2,681505978E-1"",""9,538499832E0""",1781
"1782,""3,830722570E-1"",""2,681505978E-1"",""9,538499832E0""",1782
"1783,""3,830722570E-1"",""2,681505978E-1"",""9,538499832E0""",1783
"1784,""3,830722570E-1"",""2,681505978E-1"",""9,538499832E0""",1784
"1785,""3,830722570E-1"",""4,213795066E-1"",""9,701305389E0""",1785
"1786,""2,298433632E-1"",""2,681505978E-1"",""9,538499832E0""",1786
"1787,""3,830722570E-1"",""2,681505978E-1"",""9,538499832E0""",1787
"1788,""3,830722570E-1"",""2,681505978E-1"",""9,538499832E0""",1788
"1789,""2,298433632E-1"",""4,213795066E-1"",""9,538499832E0""",1789
"1790,""2,298433632E-1"",""4,213795066E-1"",""9,538499832E0""",1790
"1791,""3,830722570E-1"",""2,681505978E-1"",""9,701305389E0""",1791
"1792,""2,298433632E-1"",""4,213795066E-1"",""9,538499832E0""",1792
"1793,""3,830722570E-1"",""4,213795066E-1"",""9,538499832E0""",1793
"1794,""3,830722570E-1"",""4,213795066E-1"",""9,538499832E0""",1794
"1795,""3,830722570E-1"",""4,213795066E-1"",""9,538499832E0""",1795
"1796,""3,830722570E-1"",""4,213795066E-1"",""9,538499832E0""",1796
"1797,""3,830722570E-1"",""4,213795066E-1"",""9,701305389E0""",1797
"1798,""2,298433632E-1"",""2,681505978E-1"",""9,701305389E0""",1798
"1799,""3,830722570E-1"",""2,681505978E-1"",""9,538499832E0""",1799
"1800,""3,830722570E-1"",""4,213795066E-1"",""9,538499832E0""",1800
"1801,""3,830722570E-1"",""4,213795066E-1"",""9,538499832E0""",1801
"1802,""3,830722570E-1"",""4,213795066E-1"",""9,701305389E0""",1802
"1803,""2,298433632E-1"",""4,213795066E-1"",""9,538499832E0""",1803
"1804,""3,830722570E-1"",""4,213795066E-1"",""9,701305389E0""",1804
"1805,""3,830722570E-1"",""4,213795066E-1"",""9,538499832E0""",1805
"1806,""3,830722570E-1"",""2,681505978E-1"",""9,538499832E0""",1806
"1807,""3,830722570E-1"",""4,213795066E-1"",""9,701305389E0""",1807
"1808,""3,830722570E-1"",""2,681505978E-1"",""9,538499832E0""",1808
"1809,""3,830722570E-1"",""4,213795066E-1"",""9,538499832E0""",1809
"1810,""3,830722570E-1"",""2,681505978E-1"",""9,701305389E0""",1810
"1811,""3,830722570E-1"",""4,213795066E-1"",""9,538499832E0""",1811
"1812,""3,830722570E-1"",""4,213795066E-1"",""9,538499832E0""",1812
"1813,""3,830722570E-1"",""2,681505978E-1"",""9,538499832E0""",1813
