"Time (s)";"Acceleration x (m/s^2)";"Acceleration y (m/s^2)";"Acceleration z (m/s^2)"
1,011252605E0;-2,298433632E-1;4,098873138E0;7,948749542E0
2,011252605E0;2,298433632E-1;1,953668594E0;1,193270111E1
3,011252605E0;3,830722570E-1;4,213795066E-1;9,538499832E0
4,150118749E0;1,149216771E0;3,639186621E0;1,034295177E1
5,150118749E0;-7,661445439E-2;3,945644379E0;9,069235802E0
6,150118749E0;-8,427590132E-1;3,792415380E0;9,385271072E0
7,150118749E0;3,830722570E-1;4,252102375E0;8,743624687E0
8,150118749E0;-2,068590164E0;4,098873138E0;9,069235802E0
9,150118749E0;-3,141192675E0;4,558559895E0;8,111555099E0
1,033673183E1;-5,363011956E-1;3,332728863E0;9,069235802E0
1,133673183E1;7,661445439E-2;5,018246651E0;9,069235802E0
1,330029010E1;1,149216771E0;7,278373241E-1;1,479616642E1
1,430029010E1;-6,895300746E-1;1,647210717E0;6,837840080E0
1,530029010E1;-3,907337189E0;-4,635174274E0;8,427590370E0
1,630029010E1;-2,528276920E0;5,746083856E-1;9,701305389E0
1,730029010E1;-2,375048161E0;4,213795066E-1;9,864110947E0
1,830029010E1;-3,141192675E0;2,106897593E0;7,316680431E0
1,930029010E1;-4,060565948E0;3,792415380E0;6,358999729E0
2,030029010E1;-4,520252705E0;3,179499865E0;6,042964935E0
2,130029010E1;-2,221819162E0;-5,248090267E0;1,049618053E1
2,230029010E1;-2,987963676E0;-1,076433086E1;-4,932055473E0
2,330029010E1;-9,270348549E0;-4,481945515E0;-7,948749542E0
2,430029010E1;-9,576807022E0;-4,979939461E-1;-3,332728863E0
2,530029010E1;-7,738059998E0;-1,723825216E0;-1,905784607E0
2,630029010E1;-8,963891029E0;-3,830722719E-2;-6,042964935E0
2,730029010E1;-7,125144482E0;7,278373241E-1;-4,453215122E0
2,830029010E1;-5,899312973E0;4,865017891E0;-5,401319027E0
2,930029010E1;-7,891288757E0;3,485957623E0;-6,042964935E0
3,030029010E1;-9,270348549E0;1,034295082E0;-4,769249916E0
3,130029010E1;-9,117119789E0;2,681505978E-1;-5,564124584E0
3,230029010E1;-5,133168221E0;2,681505978E-1;-2,221819162E0
3,330029010E1;-6,358999729E0;-1,110909581E0;6,358999729E0
3,430029010E1;-3,830722570E-1;5,477933407E0;7,000645638E0
3,530029010E1;5,363011956E-1;1,800439715E0;1,049618053E1
3,630029010E1;-2,068590164E0;1,493981838E0;8,743624687E0
3,730029010E1;-1,302445769E0;4,711789131E0;7,948749542E0
3,830029010E1;-2,298433632E-1;7,316680431E0;7,469909191E0
3,930029010E1;6,895300746E-1;5,171475887E0;7,000645638E0
4,030029010E1;7,661445439E-2;2,566584110E0;3,974374771E0
4,130029010E1;-3,754108191E0;3,639186621E0;7,000645638E0
4,230029010E1;-1,762132406E0;4,252102375E0;5,401319027E0
4,330029010E1;-1,915361404E0;3,639186621E0;8,427590370E0
4,430029010E1;8,427590132E-1;6,090848923E0;7,153874874E0
4,530029010E1;-8,427590132E-1;5,018246651E0;7,795520782E0
4,630029010E1;-1,149216771E0;3,639186621E0;8,111555099E0
4,730029010E1;-6,895300746E-1;5,631162167E0;9,069235802E0
4,830029010E1;-7,661445439E-2;5,784391403E0;8,274360657E0
4,930029010E1;-7,661445439E-2;5,477933407E0;8,111555099E0
5,030029010E1;-5,363011956E-1;3,179499865E0;9,222464561E0
5,130029010E1;-1,762132406E0;4,405331135E0;7,795520782E0
5,230029010E1;3,830722570E-1;5,324704647E0;8,274360657E0
5,330029010E1;-3,830722570E-1;5,784391403E0;7,153874874E0
5,430029010E1;-1,302445769E0;4,558559895E0;1,463336086E1
5,530029010E1;-3,830722570E-1;5,631162167E0;9,538499832E0
5,630029010E1;-6,895300746E-1;3,945644379E0;9,701305389E0
5,730029010E1;-8,427590132E-1;3,026270866E0;1,018014526E1
5,830029010E1;-3,830722570E-1;3,639186621E0;7,153874874E0
5,930029010E1;-3,141192675E0;-2,030282974E0;9,701305389E0
6,030029010E1;-4,213795185E0;-1,723825216E0;7,948749542E0
6,130029010E1;-1,302445769E0;3,792415380E0;7,153874874E0
6,230029010E1;-2,221819162E0;3,639186621E0;8,427590370E0
6,330029010E1;-2,681505919E0;3,945644379E0;8,743624687E0
6,430029010E1;-1,608903527E0;3,945644379E0;8,274360657E0
6,530029010E1;-8,427590132E-1;3,945644379E0;7,795520782E0
6,630029010E1;-7,661445439E-2;5,631162167E0;8,274360657E0
6,730029010E1;-7,661445439E-2;5,477933407E0;7,948749542E0
6,830029010E1;-6,895300746E-1;5,018246651E0;8,274360657E0
6,930029010E1;3,830722570E-1;5,171475887E0;8,906430244E0
7,030029010E1;2,298433632E-1;5,631162167E0;7,948749542E0
7,130029010E1;-6,895300746E-1;5,171475887E0;7,795520782E0
7,230029010E1;3,830722570E-1;5,324704647E0;8,274360657E0
7,330029010E1;-7,661445439E-2;5,171475887E0;8,427590370E0
7,430029010E1;-7,661445439E-2;5,477933407E0;8,111555099E0
7,530029010E1;7,661445439E-2;5,171475887E0;8,111555099E0
7,630029010E1;-7,661445439E-2;5,018246651E0;8,427590370E0
7,730029010E1;-3,447650433E0;2,260126352E0;9,069235802E0
7,830029010E1;1,149216771E0;1,953668594E0;6,837840080E0
7,930029010E1;-1,915361404E0;3,945644379E0;9,385271072E0
8,030029010E1;9,959878922E-1;3,485957623E0;9,701305389E0
8,130029010E1;5,363011956E-1;5,477933407E0;7,469909191E0
8,230029010E1;3,830722570E-1;4,865017891E0;8,111555099E0
8,330029010E1;-5,363011956E-1;5,171475887E0;1,081221485E1
8,430029010E1;-2,987963676E0;2,873042107E0;1,113782597E1
8,530029010E1;-1,455674648E0;2,873042107E0;9,864110947E0
8,630029010E1;-6,895300746E-1;4,558559895E0;9,069235802E0
8,730029010E1;-7,661445439E-2;4,558559895E0;8,111555099E0
8,830029010E1;3,830722570E-1;5,018246651E0;7,316680431E0
8,930029010E1;-7,661445439E-2;5,171475887E0;7,469909191E0
9,030029010E1;5,363011956E-1;6,090848923E0;5,726930618E0
9,130029010E1;-2,221819162E0;3,332728863E0;1,049618053E1
9,230029010E1;-3,294421434E0;2,566584110E0;1,081221485E1
9,330029010E1;-2,221819162E0;2,566584110E0;7,632715225E0
9,430029010E1;-1,302445769E0;4,711789131E0;7,948749542E0
9,530029010E1;-1,149216771E0;5,324704647E0;6,837840080E0
9,630029010E1;2,298433632E-1;3,792415380E0;8,906430244E0
9,730029010E1;-2,528276920E0;3,026270866E0;9,538499832E0
9,830029010E1;-9,959878922E-1;1,800439715E0;1,001733971E1
9,930029010E1;-2,298433632E-1;1,493981838E0;9,069235802E0
1,003002901E2;-9,959878922E-1;2,719813108E0;1,081221485E1
1,013002901E2;-2,375048161E0;3,485957623E0;8,906430244E0
1,023002901E2;-7,661445439E-2;4,405331135E0;7,948749542E0
1,033002901E2;-2,298433632E-1;4,865017891E0;8,274360657E0
1,043002901E2;5,363011956E-1;3,792415380E0;9,385271072E0
1,053002901E2;-7,661445439E-2;4,098873138E0;7,795520782E0
1,063002901E2;3,830722570E-1;4,558559895E0;8,743624687E0
1,073002901E2;-5,363011956E-1;3,945644379E0;8,743624687E0
1,083002901E2;-1,915361404E0;3,485957623E0;9,701305389E0
1,093002901E2;-2,298433632E-1;4,405331135E0;8,590395927E0
1,103002901E2;-9,959878922E-1;4,098873138E0;8,743624687E0
1,113002901E2;-7,661445439E-2;4,098873138E0;8,427590370E0
1,123002901E2;1,455674648E0;3,792415380E0;9,069235802E0
1,133002901E2;-2,068590164E0;4,405331135E0;9,385271072E0
1,143002901E2;-2,298433632E-1;5,631162167E0;8,111555099E0
1,153002901E2;5,363011956E-1;5,018246651E0;8,111555099E0
1,163002901E2;9,959878922E-1;2,106897593E0;8,427590370E0
1,173002901E2;-6,895300746E-1;3,179499865E0;9,385271072E0
1,183002901E2;-1,149216771E0;3,179499865E0;8,111555099E0
1,193002901E2;-3,447650433E0;2,873042107E0;1,034295177E1
1,203002901E2;-1,455674648E0;3,945644379E0;8,743624687E0
1,213002901E2;-7,661445439E-2;2,413355350E0;8,274360657E0
1,223002901E2;-7,661445439E-2;2,873042107E0;9,538499832E0
1,233002901E2;-3,830722570E-1;3,792415380E0;8,274360657E0
1,243002901E2;-1,608903527E0;4,252102375E0;9,538499832E0
1,253002901E2;-8,427590132E-1;3,945644379E0;6,675034523E0
1,263002901E2;7,661445439E-2;3,179499865E0;8,743624687E0
1,273002901E2;5,363011956E-1;3,026270866E0;1,001733971E1
1,283002901E2;3,830722570E-1;3,639186621E0;9,864110947E0
1,293002901E2;-1,608903527E0;1,800439715E0;1,097502041E1
1,303002901E2;-8,427590132E-1;1,800439715E0;7,795520782E0
1,313002901E2;-5,363011956E-1;2,566584110E0;7,795520782E0
1,323002901E2;-2,298433632E-1;1,800439715E0;1,049618053E1
1,333002901E2;-6,895300746E-1;2,106897593E0;8,743624687E0
1,343002901E2;-1,608903527E0;1,340752959E0;9,222464561E0
1,353002901E2;-2,528276920E0;1,340752959E0;1,081221485E1
1,363002901E2;-1,455674648E0;2,873042107E0;1,081221485E1
1,373002901E2;-9,959878922E-1;3,026270866E0;7,153874874E0
1,383002901E2;7,661445439E-2;2,106897593E0;1,001733971E1
1,393002901E2;-1,608903527E0;2,106897593E0;1,097502041E1
1,403002901E2;-2,068590164E0;2,566584110E0;9,538499832E0
1,413002901E2;-1,762132406E0;2,719813108E0;9,538499832E0
1,423002901E2;-3,830722570E-1;1,953668594E0;8,906430244E0
1,433002901E2;2,298433632E-1;2,413355350E0;9,701305389E0
1,443002901E2;-8,427590132E-1;2,413355350E0;7,469909191E0
1,453002901E2;-1,762132406E0;4,405331135E0;8,906430244E0
1,463002901E2;1,608903527E0;2,719813108E0;1,001733971E1
1,473002901E2;2,298433632E-1;2,413355350E0;9,385271072E0
1,483002901E2;-7,661445439E-2;2,106897593E0;1,097502041E1
1,493002901E2;-1,149216771E0;2,719813108E0;9,222464561E0
1,503002901E2;-8,427590132E-1;3,945644379E0;7,795520782E0
1,513002901E2;2,298433632E-1;2,413355350E0;8,743624687E0
1,523002901E2;5,363011956E-1;2,873042107E0;9,701305389E0
1,533002901E2;-7,661445439E-2;3,485957623E0;1,001733971E1
1,543002901E2;-1,762132406E0;3,179499865E0;1,001733971E1
1,553002901E2;-2,298433632E-1;3,332728863E0;8,906430244E0
1,563002901E2;1,149216771E0;3,179499865E0;9,385271072E0
1,573002901E2;-1,302445769E0;2,260126352E0;8,743624687E0
1,583002901E2;-2,298433632E-1;2,719813108E0;8,427590370E0
1,593002901E2;5,363011956E-1;1,647210717E0;8,906430244E0
1,603002901E2;-9,959878922E-1;2,566584110E0;1,018014526E1
1,613002901E2;-9,959878922E-1;2,260126352E0;1,034295177E1
1,623002901E2;2,298433632E-1;1,953668594E0;9,069235802E0
1,633002901E2;-3,830722570E-1;2,260126352E0;9,222464561E0
1,643002901E2;-2,068590164E0;1,800439715E0;8,743624687E0
1,653002901E2;7,661445439E-2;1,647210717E0;1,081221485E1
1,663002901E2;9,959878922E-1;1,953668594E0;1,018014526E1
1,673002901E2;-1,608903527E0;2,106897593E0;9,538499832E0
1,683002901E2;-1,302445769E0;2,719813108E0;8,427590370E0
1,693002901E2;7,661445439E-2;8,810662031E-1;1,272757626E1
1,703002901E2;-7,661445439E-2;2,260126352E0;9,538499832E0
1,713002901E2;-1,762132406E0;2,260126352E0;9,701305389E0
1,723002901E2;-6,895300746E-1;1,493981838E0;1,193270111E1
1,733002901E2;6,895300746E-1;2,413355350E0;1,049618053E1
1,743002901E2;5,363011956E-1;2,566584110E0;9,069235802E0
1,753002901E2;-1,608903527E0;2,106897593E0;8,906430244E0
1,763002901E2;-1,302445769E0;3,332728863E0;9,701305389E0
1,773002901E2;3,830722570E-1;2,106897593E0;9,222464561E0
1,783002901E2;9,959878922E-1;1,953668594E0;1,034295177E1
1,793002901E2;-6,895300746E-1;2,566584110E0;8,274360657E0
1,803002901E2;-5,363011956E-1;3,792415380E0;6,521805286E0
1,813002901E2;8,427590132E-1;2,719813108E0;7,795520782E0
1,823002901E2;8,427590132E-1;2,260126352E0;8,906430244E0
1,833002901E2;-7,661445439E-2;2,873042107E0;7,632715225E0
1,843002901E2;-1,915361404E0;2,719813108E0;9,864110947E0
1,853002901E2;-6,895300746E-1;3,179499865E0;9,864110947E0
1,863002901E2;6,895300746E-1;4,098873138E0;8,274360657E0
1,873002901E2;-7,661445439E-2;3,639186621E0;1,081221485E1
1,883002901E2;-1,762132406E0;3,485957623E0;9,222464561E0
1,893002901E2;-6,895300746E-1;2,873042107E0;1,065898609E1
1,903002901E2;3,830722570E-1;2,413355350E0;9,069235802E0
1,913002901E2;1,149216771E0;3,179499865E0;1,018014526E1
1,923002901E2;-7,661445439E-2;2,566584110E0;9,538499832E0
1,933002901E2;-1,455674648E0;3,026270866E0;9,222464561E0
1,943002901E2;-6,895300746E-1;3,179499865E0;7,153874874E0
1,953002901E2;-1,302445769E0;3,792415380E0;1,034295177E1
1,963002901E2;-9,959878922E-1;3,332728863E0;9,222464561E0
1,973002901E2;5,363011956E-1;3,026270866E0;7,153874874E0
1,983002901E2;3,830722570E-1;3,026270866E0;8,427590370E0
1,993002901E2;1,762132406E0;4,865017891E0;8,906430244E0
2,003002901E2;1,302445769E0;3,026270866E0;9,538499832E0
2,013002901E2;-1,302445769E0;3,639186621E0;1,081221485E1
2,023002901E2;-7,661445439E-2;3,179499865E0;1,527500725E1
2,033002901E2;-7,661445439E-2;3,332728863E0;1,049618053E1
2,043002901E2;6,895300746E-1;3,026270866E0;1,001733971E1
2,053002901E2;-7,661445439E-2;2,873042107E0;6,205770969E0
2,063002901E2;-2,298433632E-1;2,413355350E0;9,069235802E0
2,073002901E2;-7,661445439E-2;2,413355350E0;1,113782597E1
2,083002901E2;-2,375048161E0;3,179499865E0;1,256477070E1
2,093002901E2;-1,762132406E0;1,800439715E0;1,001733971E1
2,103002901E2;7,661445439E-2;1,647210717E0;6,205770969E0
2,113002901E2;-7,661445439E-2;1,647210717E0;8,427590370E0
2,123002901E2;5,363011956E-1;1,034295082E0;1,081221485E1
2,133002901E2;-2,068590164E0;2,681505978E-1;9,222464561E0
2,143002901E2;-1,302445769E0;1,149216816E-1;1,065898609E1
2,153002901E2;-7,661445439E-2;4,213795066E-1;8,274360657E0
2,163002901E2;-7,661445439E-2;3,026270866E0;6,837840080E0
2,173002901E2;5,363011956E-1;5,018246651E0;8,590395927E0
2,183002901E2;-8,427590132E-1;5,171475887E0;7,316680431E0
2,193002901E2;-3,830722570E-1;5,018246651E0;7,000645638E0
2,203002901E2;7,661445439E-2;4,865017891E0;4,769249916E0
2,213002901E2;-9,959878922E-1;2,719813108E0;7,795520782E0
2,223002901E2;5,363011956E-1;4,865017891E0;7,632715225E0
2,233002901E2;-5,363011956E-1;3,639186621E0;9,222464561E0
2,243002901E2;7,661445439E-2;4,711789131E0;7,316680431E0
2,253002901E2;3,830722570E-1;4,098873138E0;8,590395927E0
2,263002901E2;6,895300746E-1;3,332728863E0;1,081221485E1
2,273002901E2;3,830722570E-1;5,018246651E0;8,427590370E0
2,283002901E2;-8,427590132E-1;4,711789131E0;6,358999729E0
2,293002901E2;5,363011956E-1;3,639186621E0;1,129105568E1
2,303002901E2;2,298433632E-1;3,945644379E0;8,906430244E0
2,313002901E2;-1,608903527E0;3,332728863E0;7,948749542E0
2,323002901E2;-7,661445439E-2;3,945644379E0;9,701305389E0
2,333002901E2;9,959878922E-1;3,639186621E0;8,111555099E0
2,343002901E2;-8,427590132E-1;3,026270866E0;7,795520782E0
2,353002901E2;2,298433632E-1;3,179499865E0;8,274360657E0
2,363002901E2;1,302445769E0;3,179499865E0;9,069235802E0
2,373002901E2;-8,427590132E-1;2,719813108E0;9,069235802E0
2,383002901E2;1,149216771E0;2,260126352E0;8,906430244E0
2,393002901E2;-3,830722570E-1;2,873042107E0;1,208592987E1
2,403002901E2;-9,959878922E-1;2,873042107E0;1,034295177E1
2,413002901E2;1,608903527E0;2,873042107E0;8,590395927E0
2,423002901E2;3,830722570E-1;2,566584110E0;1,304361057E1
2,433002901E2;-8,427590132E-1;3,026270866E0;8,427590370E0
2,443002901E2;3,830722570E-1;3,026270866E0;1,001733971E1
2,453002901E2;3,830722570E-1;2,413355350E0;1,208592987E1
2,463002901E2;-7,661445439E-2;4,865017891E0;8,590395927E0
2,473002901E2;-1,149216771E0;3,792415380E0;8,427590370E0
2,483002901E2;7,661445439E-2;3,792415380E0;9,864110947E0
2,493002901E2;8,427590132E-1;2,719813108E0;1,001733971E1
2,503002901E2;1,149216771E0;2,719813108E0;1,034295177E1
2,513002901E2;-3,830722570E-1;3,792415380E0;1,034295177E1
2,523002901E2;-1,302445769E0;2,873042107E0;7,632715225E0
2,533002901E2;-8,427590132E-1;2,566584110E0;8,427590370E0
2,543002901E2;-1,302445769E0;2,719813108E0;9,222464561E0
2,553002901E2;5,363011956E-1;3,332728863E0;8,427590370E0
2,563002901E2;9,959878922E-1;3,179499865E0;9,538499832E0
2,573002901E2;1,302445769E0;4,098873138E0;8,906430244E0
2,583002901E2;9,959878922E-1;3,485957623E0;1,049618053E1
2,593002901E2;5,363011956E-1;3,485957623E0;7,795520782E0
2,603002901E2;3,830722570E-1;3,026270866E0;8,743624687E0
2,613002901E2;-6,895300746E-1;2,719813108E0;8,111555099E0
2,623002901E2;-6,895300746E-1;3,026270866E0;8,590395927E0
2,633002901E2;-1,455674648E0;3,485957623E0;8,590395927E0
2,643002901E2;-1,455674648E0;3,026270866E0;8,906430244E0
2,653002901E2;-1,149216771E0;2,719813108E0;8,743624687E0
2,663002901E2;-8,427590132E-1;3,179499865E0;9,385271072E0
2,673002901E2;1,302445769E0;2,566584110E0;8,906430244E0
2,683002901E2;2,298433632E-1;2,413355350E0;1,001733971E1
2,693002901E2;3,830722570E-1;2,413355350E0;9,701305389E0
2,703002901E2;8,427590132E-1;2,566584110E0;9,222464561E0
2,713002901E2;8,427590132E-1;3,179499865E0;9,222464561E0
2,723002901E2;5,363011956E-1;2,566584110E0;8,111555099E0
2,733002901E2;9,959878922E-1;3,485957623E0;7,948749542E0
2,743002901E2;9,959878922E-1;2,719813108E0;9,864110947E0
2,753002901E2;6,895300746E-1;2,566584110E0;1,001733971E1
2,763002901E2;-7,661445439E-2;2,719813108E0;9,538499832E0
2,773002901E2;7,661445439E-2;2,719813108E0;9,538499832E0
2,783002901E2;5,363011956E-1;2,413355350E0;7,316680431E0
2,793002901E2;-7,661445439E-2;1,953668594E0;1,383848572E1
2,803002901E2;1,149216771E0;2,260126352E0;8,590395927E0
2,813002901E2;5,363011956E-1;3,639186621E0;8,111555099E0
2,823002901E2;1,455674648E0;3,179499865E0;8,743624687E0
2,833002901E2;-5,363011956E-1;2,260126352E0;1,113782597E1
2,843002901E2;9,959878922E-1;3,179499865E0;8,590395927E0
2,853002901E2;7,661445439E-2;2,260126352E0;1,193270111E1
2,863002901E2;-1,149216771E0;2,873042107E0;9,385271072E0
2,873002901E2;-2,375048161E0;2,566584110E0;1,160709000E1
2,883002901E2;-9,959878922E-1;3,179499865E0;8,427590370E0
2,893002901E2;-7,661445439E-2;2,413355350E0;7,948749542E0
2,903002901E2;2,221819162E0;3,026270866E0;6,521805286E0
2,913002901E2;5,363011956E-1;2,413355350E0;1,272757626E1
2,923002901E2;6,895300746E-1;3,332728863E0;8,274360657E0
2,933002901E2;-7,661445439E-2;3,332728863E0;6,205770969E0
2,943002901E2;-5,363011956E-1;6,856993675E0;3,974374771E0
2,953002901E2;-7,661445439E-2;4,558559895E0;6,521805286E0
2,963002901E2;6,895300746E-1;3,026270866E0;8,590395927E0
2,973002901E2;9,959878922E-1;3,485957623E0;1,018014526E1
2,983002901E2;2,068590164E0;4,711789131E0;8,274360657E0
2,993002901E2;7,661445439E-2;2,413355350E0;1,097502041E1
3,003002901E2;-6,895300746E-1;4,558559895E0;7,153874874E0
3,013002901E2;-1,302445769E0;4,865017891E0;8,427590370E0
3,023002901E2;-8,427590132E-1;6,244078159E0;1,018014526E1
3,033002901E2;3,830722570E-1;5,784391403E0;7,795520782E0
3,043002901E2;9,959878922E-1;5,631162167E0;6,837840080E0
3,053002901E2;1,149216771E0;5,477933407E0;6,837840080E0
3,063002901E2;5,363011956E-1;5,171475887E0;9,538499832E0
3,073002901E2;8,427590132E-1;6,550535679E0;7,795520782E0
3,083002901E2;1,455674648E0;4,865017891E0;8,906430244E0
3,093002901E2;1,455674648E0;4,558559895E0;7,000645638E0
3,103002901E2;1,762132406E0;3,945644379E0;1,160709000E1
3,113002901E2;2,221819162E0;5,171475887E0;7,795520782E0
3,123002901E2;6,895300746E-1;4,865017891E0;9,701305389E0
3,133002901E2;8,427590132E-1;4,558559895E0;9,385271072E0
3,143002901E2;-9,959878922E-1;5,937620163E0;7,000645638E0
3,153002901E2;-3,830722570E-1;6,090848923E0;7,153874874E0
3,163002901E2;-2,298433632E-1;6,856993675E0;7,000645638E0
3,173002901E2;-5,363011956E-1;7,776367188E0;7,000645638E0
3,183002901E2;7,661445439E-2;7,316680431E0;7,153874874E0
3,193002901E2;3,830722570E-1;5,477933407E0;9,069235802E0
3,203002901E2;1,455674648E0;4,865017891E0;7,948749542E0
3,213002901E2;7,661445439E-2;4,711789131E0;1,081221485E1
3,223002901E2;2,375048161E0;3,485957623E0;7,316680431E0
3,233002901E2;3,830722570E-1;4,558559895E0;7,000645638E0
3,243002901E2;1,149216771E0;5,324704647E0;8,274360657E0
3,253002901E2;5,363011956E-1;3,639186621E0;7,153874874E0
3,263002901E2;-2,681505919E0;4,865017891E0;1,463336086E1
3,273002901E2;-9,959878922E-1;1,647210717E0;3,974374771E0
3,283002901E2;-7,661445439E-2;1,034295082E0;8,274360657E0
3,293002901E2;-6,895300746E-1;1,340752959E0;7,153874874E0
3,303002901E2;-2,298433632E-1;1,340752959E0;1,160709000E1
3,313002901E2;-7,661445439E-2;3,026270866E0;1,081221485E1
3,323002901E2;3,830722570E-1;5,171475887E0;1,065898609E1
3,333002901E2;8,427590132E-1;2,719813108E0;7,316680431E0
3,343002901E2;-6,895300746E-1;1,340752959E0;8,590395927E0
3,353002901E2;-5,363011956E-1;1,953668594E0;7,948749542E0
3,363002901E2;-2,298433632E-1;2,413355350E0;9,222464561E0
3,373002901E2;2,298433632E-1;1,340752959E0;1,176989555E1
3,383002901E2;9,959878922E-1;1,800439715E0;1,081221485E1
3,393002901E2;-1,455674648E0;2,106897593E0;9,222464561E0
3,403002901E2;-6,895300746E-1;1,493981838E0;9,538499832E0
3,413002901E2;2,298433632E-1;2,106897593E0;9,385271072E0
3,423002901E2;2,298433632E-1;1,493981838E0;8,274360657E0
3,433002901E2;1,302445769E0;1,800439715E0;9,069235802E0
3,443002901E2;-2,528276920E0;2,260126352E0;1,065898609E1
3,453002901E2;-2,298433632E-1;3,639186621E0;9,069235802E0
3,463002901E2;9,959878922E-1;5,018246651E0;8,111555099E0
3,473002901E2;1,608903527E0;3,026270866E0;7,795520782E0
3,483002901E2;7,661445439E-2;2,566584110E0;9,701305389E0
3,493002901E2;-2,681505919E0;3,945644379E0;1,049618053E1
3,503002901E2;3,830722570E-1;4,098873138E0;9,701305389E0
3,513002901E2;5,363011956E-1;5,018246651E0;9,864110947E0
3,523002901E2;7,661445439E-2;4,098873138E0;9,385271072E0
3,533002901E2;-9,959878922E-1;3,332728863E0;8,906430244E0
3,543002901E2;-6,895300746E-1;3,179499865E0;7,469909191E0
3,553002901E2;3,830722570E-1;3,639186621E0;7,000645638E0
3,563002901E2;3,830722570E-1;3,026270866E0;9,385271072E0
3,573002901E2;5,363011956E-1;2,719813108E0;1,001733971E1
3,583002901E2;-5,363011956E-1;2,873042107E0;7,948749542E0
3,593002901E2;3,830722570E-1;5,018246651E0;7,795520782E0
3,603002901E2;9,959878922E-1;3,485957623E0;7,948749542E0
3,613002901E2;6,895300746E-1;3,485957623E0;8,427590370E0
3,623002901E2;-1,149216771E0;2,873042107E0;1,034295177E1
3,633002901E2;-3,830722570E-1;2,719813108E0;7,316680431E0
3,643002901E2;1,149216771E0;2,566584110E0;8,427590370E0
3,653002901E2;6,895300746E-1;3,179499865E0;9,222464561E0
3,663002901E2;6,895300746E-1;6,703764915E0;7,795520782E0
3,673002901E2;7,661445439E-2;5,784391403E0;7,000645638E0
3,683002901E2;-8,427590132E-1;5,631162167E0;9,385271072E0
3,693002901E2;2,068590164E0;5,171475887E0;7,469909191E0
3,703002901E2;9,959878922E-1;6,397306919E0;6,675034523E0
3,713002901E2;-5,363011956E-1;3,792415380E0;1,049618053E1
3,723002901E2;-6,895300746E-1;4,558559895E0;7,000645638E0
3,733002901E2;8,427590132E-1;3,945644379E0;7,795520782E0
3,743002901E2;1,915361404E0;3,945644379E0;5,726930618E0
3,753002901E2;2,298433632E-1;4,558559895E0;9,385271072E0
3,763002901E2;-1,149216771E0;4,558559895E0;8,906430244E0
3,773002901E2;8,427590132E-1;5,784391403E0;7,795520782E0
3,783002901E2;1,915361404E0;6,550535679E0;7,000645638E0
3,793002901E2;8,427590132E-1;5,937620163E0;6,521805286E0
3,803002901E2;-3,830722570E-1;4,711789131E0;6,205770969E0
3,813002901E2;-7,661445439E-2;4,711789131E0;8,743624687E0
3,823002901E2;1,455674648E0;3,945644379E0;1,018014526E1
3,833002901E2;1,302445769E0;4,405331135E0;7,000645638E0
3,843002901E2;1,149216771E0;5,937620163E0;7,948749542E0
3,853002901E2;-1,302445769E0;5,324704647E0;8,906430244E0
3,863002901E2;-7,661445439E-2;5,784391403E0;8,743624687E0
3,873002901E2;1,302445769E0;3,945644379E0;6,675034523E0
3,883002901E2;9,959878922E-1;4,558559895E0;7,632715225E0
3,893002901E2;-5,363011956E-1;5,324704647E0;8,427590370E0
3,903002901E2;-1,149216771E0;5,631162167E0;7,153874874E0
3,913002901E2;-2,298433632E-1;5,477933407E0;8,906430244E0
3,923002901E2;8,427590132E-1;4,098873138E0;9,069235802E0
3,933002901E2;9,959878922E-1;4,711789131E0;8,906430244E0
3,943002901E2;-8,427590132E-1;4,558559895E0;9,069235802E0
3,953002901E2;-2,068590164E0;5,171475887E0;9,701305389E0
3,963002901E2;3,830722570E-1;5,937620163E0;8,590395927E0
3,973002901E2;9,959878922E-1;4,558559895E0;8,274360657E0
3,983002901E2;5,363011956E-1;5,324704647E0;9,069235802E0
3,993002901E2;4,060565948E0;5,324704647E0;1,145386124E1
4,003002901E2;3,141192675E0;4,865017891E0;8,743624687E0
4,013002901E2;1,762132406E0;5,477933407E0;5,248090267E0
4,023002901E2;2,681505919E0;5,784391403E0;7,632715225E0
4,033002901E2;5,439626217E0;3,792415380E0;8,274360657E0
4,043002901E2;3,447650433E0;5,477933407E0;9,701305389E0
4,053002901E2;3,907337189E0;4,558559895E0;9,701305389E0
4,063002901E2;2,987963676E0;4,865017891E0;8,274360657E0
4,073002901E2;1,149216771E0;5,631162167E0;6,837840080E0
4,083002901E2;3,830722570E-1;4,865017891E0;7,000645638E0
4,093002901E2;1,608903527E0;5,631162167E0;6,675034523E0
4,103002901E2;2,068590164E0;6,550535679E0;7,153874874E0
4,113002901E2;1,762132406E0;4,252102375E0;8,590395927E0
4,123002901E2;2,375048161E0;3,332728863E0;9,538499832E0
4,133002901E2;2,221819162E0;6,090848923E0;7,469909191E0
4,143002901E2;1,455674648E0;6,856993675E0;5,564124584E0
4,153002901E2;-2,298433632E-1;5,171475887E0;7,469909191E0
4,163002901E2;7,661445439E-2;4,405331135E0;8,590395927E0
4,173002901E2;3,830722570E-1;6,550535679E0;6,837840080E0
4,183002901E2;5,363011956E-1;6,856993675E0;7,469909191E0
4,193002901E2;8,427590132E-1;5,018246651E0;8,427590370E0
4,203002901E2;2,221819162E0;4,098873138E0;8,590395927E0
4,213002901E2;3,141192675E0;4,711789131E0;9,385271072E0
4,223002901E2;2,221819162E0;4,405331135E0;8,274360657E0
4,233002901E2;-2,298433632E-1;3,639186621E0;9,385271072E0
4,243002901E2;-3,830722570E-1;3,332728863E0;1,065898609E1
4,253002901E2;8,427590132E-1;3,332728863E0;8,590395927E0
4,263002901E2;1,302445769E0;3,179499865E0;5,726930618E0
4,273002901E2;1,149216771E0;2,719813108E0;1,160709000E1
4,283002901E2;1,915361404E0;3,179499865E0;1,018014526E1
4,293002901E2;5,363011956E-1;2,566584110E0;9,538499832E0
4,303002901E2;5,363011956E-1;3,332728863E0;8,906430244E0
4,313002901E2;1,149216771E0;3,945644379E0;9,701305389E0
4,323002901E2;2,068590164E0;2,566584110E0;8,743624687E0
4,333002901E2;2,221819162E0;3,179499865E0;9,222464561E0
4,343002901E2;9,959878922E-1;3,179499865E0;1,049618053E1
4,353002901E2;-7,661445439E-2;3,179499865E0;7,000645638E0
4,363002901E2;6,895300746E-1;4,558559895E0;8,427590370E0
4,373002901E2;1,455674648E0;4,711789131E0;7,153874874E0
4,383002901E2;2,375048161E0;3,792415380E0;8,743624687E0
4,393002901E2;2,681505919E0;3,792415380E0;7,948749542E0
4,403002901E2;3,830722570E-1;3,945644379E0;9,222464561E0
4,413002901E2;-1,149216771E0;4,252102375E0;7,795520782E0
4,423002901E2;8,427590132E-1;4,865017891E0;9,385271072E0
4,433002901E2;3,830722570E-1;3,792415380E0;9,385271072E0
4,443002901E2;1,455674648E0;3,945644379E0;7,469909191E0
4,453002901E2;2,375048161E0;4,098873138E0;7,153874874E0
4,463002901E2;6,895300746E-1;4,711789131E0;8,743624687E0
4,473002901E2;1,608903527E0;3,639186621E0;9,385271072E0
4,483002901E2;1,608903527E0;3,485957623E0;9,222464561E0
4,493002901E2;9,959878922E-1;4,252102375E0;1,001733971E1
4,503002901E2;1,302445769E0;4,558559895E0;7,948749542E0
4,513002901E2;1,762132406E0;3,792415380E0;9,701305389E0
4,523002901E2;7,661445439E-2;5,324704647E0;8,274360657E0
4,533002901E2;7,661445439E-2;5,171475887E0;6,837840080E0
4,543002901E2;-3,830722570E-1;6,244078159E0;8,427590370E0
4,553002901E2;6,895300746E-1;5,784391403E0;8,743624687E0
4,563002901E2;1,149216771E0;3,792415380E0;8,743624687E0
4,573002901E2;1,455674648E0;3,792415380E0;7,948749542E0
4,583002901E2;9,959878922E-1;6,244078159E0;5,085284233E0
4,593002901E2;1,149216771E0;3,792415380E0;1,018014526E1
4,603002901E2;1,762132406E0;4,405331135E0;7,632715225E0
4,613002901E2;6,895300746E-1;4,711789131E0;1,034295177E1
4,623002901E2;1,762132406E0;5,018246651E0;8,590395927E0
4,633002901E2;1,302445769E0;6,090848923E0;1,224873543E1
4,643002901E2;2,375048161E0;5,171475887E0;7,632715225E0
4,653002901E2;1,455674648E0;5,018246651E0;9,069235802E0
4,663002901E2;1,455674648E0;4,558559895E0;6,837840080E0
4,673002901E2;1,455674648E0;5,018246651E0;8,427590370E0
4,683002901E2;1,915361404E0;5,171475887E0;8,274360657E0
4,693002901E2;1,302445769E0;5,171475887E0;7,316680431E0
4,703002901E2;2,221819162E0;5,324704647E0;5,880159378E0
4,713002901E2;1,762132406E0;5,631162167E0;7,153874874E0
4,723002901E2;-7,661445439E-2;6,856993675E0;7,948749542E0
4,733002901E2;6,895300746E-1;6,090848923E0;6,521805286E0
4,743002901E2;8,427590132E-1;6,550535679E0;7,153874874E0
4,753002901E2;5,363011956E-1;6,703764915E0;7,153874874E0
4,763002901E2;5,363011956E-1;6,703764915E0;7,153874874E0
4,773002901E2;-7,661445439E-2;6,244078159E0;7,316680431E0
4,783002901E2;2,298433632E-1;6,550535679E0;7,469909191E0
4,793002901E2;5,363011956E-1;6,244078159E0;7,469909191E0
4,803002901E2;3,830722570E-1;6,397306919E0;7,632715225E0
4,813002901E2;6,895300746E-1;6,244078159E0;7,469909191E0
4,823002901E2;3,830722570E-1;6,397306919E0;7,469909191E0
4,833002901E2;3,830722570E-1;6,090848923E0;7,469909191E0
4,843002901E2;3,830722570E-1;6,090848923E0;7,795520782E0
4,853002901E2;7,661445439E-2;6,244078159E0;7,795520782E0
4,863002901E2;3,830722570E-1;5,937620163E0;7,632715225E0
4,873002901E2;2,298433632E-1;5,784391403E0;7,795520782E0
4,883002901E2;2,298433632E-1;6,244078159E0;7,469909191E0
4,893002901E2;2,298433632E-1;6,244078159E0;7,469909191E0
4,903002901E2;2,298433632E-1;6,244078159E0;7,316680431E0
4,913002901E2;5,363011956E-1;6,244078159E0;7,795520782E0
4,923002901E2;9,959878922E-1;6,090848923E0;7,153874874E0
4,933002901E2;-7,661445439E-2;5,477933407E0;9,701305389E0
4,943002901E2;-1,608903527E0;5,477933407E0;7,948749542E0
4,953002901E2;7,661445439E-2;5,324704647E0;7,469909191E0
4,963002901E2;1,302445769E0;3,945644379E0;9,701305389E0
4,973002901E2;-8,427590132E-1;5,171475887E0;1,018014526E1
4,983002901E2;1,762132406E0;5,171475887E0;7,316680431E0
4,993002901E2;-7,661445439E-2;3,945644379E0;8,590395927E0
5,003002901E2;7,661445439E-2;4,252102375E0;9,385271072E0
5,013002901E2;1,302445769E0;4,711789131E0;8,906430244E0
5,023002901E2;1,762132406E0;4,865017891E0;8,274360657E0
5,033002901E2;2,298433632E-1;4,098873138E0;8,590395927E0
5,043002901E2;-3,830722570E-1;3,485957623E0;9,385271072E0
5,053002901E2;-6,895300746E-1;3,792415380E0;7,632715225E0
5,063002901E2;-6,895300746E-1;3,332728863E0;9,385271072E0
5,073002901E2;3,830722570E-1;3,026270866E0;9,222464561E0
5,083002901E2;1,762132406E0;5,631162167E0;5,085284233E0
5,093002901E2;3,830722570E-1;4,098873138E0;8,743624687E0
5,103002901E2;1,455674648E0;5,631162167E0;7,000645638E0
5,113002901E2;3,830722570E-1;4,711789131E0;8,274360657E0
5,123002901E2;-3,830722570E-1;5,784391403E0;7,948749542E0
5,133002901E2;-6,895300746E-1;6,397306919E0;7,469909191E0
5,143002901E2;-1,915361404E0;5,171475887E0;8,906430244E0
5,153002901E2;-1,762132406E0;5,018246651E0;7,153874874E0
5,163002901E2;-1,302445769E0;5,171475887E0;6,837840080E0
5,173002901E2;-9,959878922E-1;5,018246651E0;8,427590370E0
5,183002901E2;-9,959878922E-1;5,631162167E0;6,837840080E0
5,193002901E2;-1,608903527E0;5,324704647E0;9,069235802E0
5,203002901E2;3,830722570E-1;4,405331135E0;8,274360657E0
5,213002901E2;5,363011956E-1;4,558559895E0;7,153874874E0
5,223002901E2;2,298433632E-1;5,018246651E0;7,948749542E0
5,233002901E2;6,895300746E-1;4,405331135E0;8,111555099E0
5,243002901E2;1,608903527E0;4,252102375E0;7,000645638E0
5,253002901E2;1,762132406E0;4,405331135E0;7,316680431E0
5,263002901E2;1,455674648E0;4,558559895E0;7,469909191E0
5,273002901E2;6,895300746E-1;3,792415380E0;1,001733971E1
5,283002901E2;-7,661445439E-2;5,324704647E0;7,153874874E0
5,293002901E2;-8,427590132E-1;5,171475887E0;9,701305389E0
5,303002901E2;-5,363011956E-1;4,711789131E0;9,069235802E0
5,313002901E2;-8,427590132E-1;4,865017891E0;9,385271072E0
5,323002901E2;2,298433632E-1;5,784391403E0;7,795520782E0
5,333002901E2;-7,661445439E-2;5,171475887E0;7,632715225E0
5,343002901E2;-7,661445439E-2;4,711789131E0;8,427590370E0
5,353002901E2;-7,661445439E-2;4,252102375E0;7,948749542E0
5,363002901E2;-1,149216771E0;4,558559895E0;7,632715225E0
5,373002901E2;2,298433632E-1;4,558559895E0;8,427590370E0
5,383002901E2;6,895300746E-1;4,405331135E0;1,208592987E1
5,393002901E2;5,363011956E-1;3,179499865E0;1,001733971E1
5,403002901E2;-2,298433632E-1;3,485957623E0;6,521805286E0
5,413002901E2;-1,302445769E0;3,945644379E0;9,864110947E0
5,423002901E2;-5,363011956E-1;4,252102375E0;7,795520782E0
5,433002901E2;-1,762132406E0;3,639186621E0;1,001733971E1
5,443002901E2;-6,895300746E-1;3,179499865E0;1,097502041E1
5,453002901E2;1,302445769E0;3,639186621E0;9,538499832E0
5,463002901E2;1,149216771E0;4,098873138E0;8,111555099E0
5,473002901E2;1,302445769E0;4,252102375E0;9,701305389E0
5,483002901E2;1,608903527E0;5,171475887E0;7,795520782E0
5,493002901E2;9,959878922E-1;4,098873138E0;7,795520782E0
5,503002901E2;-6,895300746E-1;4,252102375E0;1,018014526E1
5,513002901E2;9,959878922E-1;4,711789131E0;9,069235802E0
5,523002901E2;6,895300746E-1;3,792415380E0;9,222464561E0
5,533002901E2;2,298433632E-1;3,639186621E0;8,111555099E0
5,543002901E2;8,427590132E-1;3,179499865E0;8,590395927E0
5,553002901E2;-8,427590132E-1;4,865017891E0;1,367568016E1
5,563002901E2;1,149216771E0;4,252102375E0;9,069235802E0
5,573002901E2;1,302445769E0;3,945644379E0;9,385271072E0
5,583002901E2;5,363011956E-1;3,485957623E0;9,538499832E0
5,593002901E2;1,149216771E0;4,098873138E0;7,948749542E0
5,603002901E2;1,455674648E0;3,945644379E0;8,111555099E0
5,613002901E2;-5,363011956E-1;1,493981838E0;3,495534420E0
5,623002901E2;-6,895300746E-1;3,945644379E0;9,385271072E0
5,633002901E2;9,959878922E-1;4,405331135E0;6,837840080E0
5,643002901E2;-8,427590132E-1;4,711789131E0;8,743624687E0
5,653002901E2;-1,149216771E0;5,171475887E0;7,632715225E0
5,663002901E2;3,830722570E-1;3,639186621E0;7,632715225E0
5,673002901E2;-2,298433632E-1;3,945644379E0;8,743624687E0
5,683002901E2;5,363011956E-1;3,179499865E0;8,590395927E0
5,693002901E2;-2,298433632E-1;3,945644379E0;1,034295177E1
5,703002901E2;1,149216771E0;5,324704647E0;7,948749542E0
5,713002901E2;3,830722570E-1;5,784391403E0;8,590395927E0
5,723002901E2;2,298433632E-1;4,865017891E0;8,906430244E0
5,733002901E2;-1,915361404E0;3,945644379E0;1,001733971E1
5,743002901E2;6,895300746E-1;5,018246651E0;7,632715225E0
5,753002901E2;9,959878922E-1;5,784391403E0;5,880159378E0
5,763002901E2;9,959878922E-1;5,018246651E0;1,224873543E1
5,773002901E2;6,895300746E-1;4,711789131E0;8,743624687E0
5,783002901E2;-7,661445439E-2;4,865017891E0;7,316680431E0
5,793002901E2;-7,661445439E-2;4,711789131E0;7,153874874E0
5,803002901E2;1,149216771E0;3,639186621E0;8,274360657E0
5,813002901E2;-6,895300746E-1;4,711789131E0;9,701305389E0
5,823002901E2;3,830722570E-1;4,098873138E0;8,427590370E0
5,833002901E2;3,830722570E-1;4,558559895E0;9,069235802E0
5,843002901E2;7,661445439E-2;3,485957623E0;1,081221485E1
5,853002901E2;-7,661445439E-2;4,252102375E0;8,427590370E0
5,863002901E2;-7,661445439E-2;4,098873138E0;7,000645638E0
5,873002901E2;3,830722570E-1;4,558559895E0;7,000645638E0
5,883002901E2;-5,363011956E-1;4,252102375E0;9,385271072E0
5,893002901E2;-6,895300746E-1;5,171475887E0;7,000645638E0
5,903002901E2;-1,915361404E0;2,719813108E0;1,590707588E1
5,913002901E2;-1,302445769E0;6,090848923E0;8,427590370E0
5,923002901E2;-5,363011956E-1;4,098873138E0;7,316680431E0
5,933002901E2;-1,149216771E0;3,945644379E0;1,097502041E1
5,943002901E2;6,895300746E-1;5,477933407E0;9,701305389E0
5,953002901E2;5,363011956E-1;5,324704647E0;1,049618053E1
5,963002901E2;1,762132406E0;3,179499865E0;9,538499832E0
5,973002901E2;5,363011956E-1;4,098873138E0;9,385271072E0
5,983002901E2;6,895300746E-1;3,792415380E0;9,069235802E0
5,993002901E2;5,363011956E-1;4,558559895E0;8,906430244E0
6,003002901E2;-1,302445769E0;4,252102375E0;9,222464561E0
6,013002901E2;1,302445769E0;3,332728863E0;8,274360657E0
6,023002901E2;1,149216771E0;3,639186621E0;7,316680431E0
6,033002901E2;-1,149216771E0;4,865017891E0;8,906430244E0
6,043002901E2;-1,149216771E0;3,945644379E0;8,274360657E0
6,053002901E2;-1,762132406E0;5,171475887E0;9,385271072E0
6,063002901E2;-2,528276920E0;3,485957623E0;1,129105568E1
6,073002901E2;-7,661445439E-2;6,090848923E0;7,795520782E0
6,083002901E2;1,608903527E0;5,784391403E0;6,837840080E0
6,093002901E2;8,427590132E-1;4,711789131E0;6,837840080E0
6,103002901E2;1,302445769E0;4,252102375E0;8,743624687E0
6,113002901E2;1,455674648E0;4,558559895E0;8,427590370E0
6,123002901E2;-7,661445439E-2;4,865017891E0;9,222464561E0
6,133002901E2;2,298433632E-1;5,171475887E0;7,795520782E0
6,143002901E2;-1,762132406E0;5,171475887E0;1,049618053E1
6,153002901E2;-3,830722570E-1;4,098873138E0;1,176989555E1
6,163002901E2;2,221819162E0;3,639186621E0;8,427590370E0
6,173002901E2;6,895300746E-1;3,945644379E0;7,948749542E0
6,183002901E2;1,762132406E0;5,018246651E0;5,726930618E0
6,193002901E2;6,895300746E-1;5,784391403E0;9,069235802E0
6,203002901E2;-7,661445439E-2;4,865017891E0;8,111555099E0
6,213002901E2;-9,959878922E-1;5,631162167E0;7,948749542E0
6,223002901E2;-2,298433632E-1;4,252102375E0;8,590395927E0
6,233002901E2;2,298433632E-1;6,397306919E0;7,948749542E0
6,243002901E2;7,661445439E-2;5,324704647E0;7,469909191E0
6,253002901E2;5,363011956E-1;5,018246651E0;7,469909191E0
6,263002901E2;6,895300746E-1;4,252102375E0;8,590395927E0
6,273002901E2;1,762132406E0;5,477933407E0;7,469909191E0
6,283002901E2;9,959878922E-1;2,873042107E0;1,065898609E1
6,293002901E2;-6,895300746E-1;2,719813108E0;7,948749542E0
6,303002901E2;2,298433632E-1;3,485957623E0;7,632715225E0
6,313002901E2;-8,427590132E-1;3,332728863E0;1,049618053E1
6,323002901E2;-1,608903527E0;4,098873138E0;9,385271072E0
6,333002901E2;-1,762132406E0;3,945644379E0;1,001733971E1
6,343002901E2;-3,830722570E-1;5,477933407E0;7,948749542E0
6,353002901E2;7,661445439E-2;4,558559895E0;7,632715225E0
6,363002901E2;5,363011956E-1;3,332728863E0;9,069235802E0
6,373002901E2;1,149216771E0;3,639186621E0;6,521805286E0
6,383002901E2;1,455674648E0;3,332728863E0;1,018014526E1
6,393002901E2;2,298433632E-1;3,485957623E0;1,288080502E1
6,403002901E2;1,762132406E0;4,252102375E0;7,316680431E0
6,413002901E2;8,427590132E-1;4,252102375E0;9,701305389E0
6,423002901E2;3,830722570E-1;2,719813108E0;9,538499832E0
6,433002901E2;3,830722570E-1;3,179499865E0;8,906430244E0
6,443002901E2;9,959878922E-1;2,719813108E0;6,837840080E0
6,453002901E2;2,298433632E-1;5,018246651E0;7,948749542E0
6,463002901E2;1,302445769E0;5,171475887E0;9,222464561E0
6,473002901E2;9,959878922E-1;5,018246651E0;8,111555099E0
6,483002901E2;2,298433632E-1;2,873042107E0;9,385271072E0
6,493002901E2;-2,298433632E-1;2,719813108E0;9,701305389E0
6,503002901E2;-1,455674648E0;3,332728863E0;7,632715225E0
6,513002901E2;-2,221819162E0;3,639186621E0;1,018014526E1
6,523002901E2;-1,455674648E0;3,485957623E0;8,111555099E0
6,533002901E2;-6,895300746E-1;3,485957623E0;8,111555099E0
6,543002901E2;-9,959878922E-1;3,945644379E0;1,049618053E1
6,553002901E2;5,363011956E-1;2,873042107E0;9,069235802E0
6,563002901E2;9,959878922E-1;3,026270866E0;9,222464561E0
6,573002901E2;8,427590132E-1;3,332728863E0;1,018014526E1
6,583002901E2;-1,149216771E0;3,485957623E0;9,538499832E0
6,593002901E2;-1,608903527E0;3,332728863E0;8,906430244E0
6,603002901E2;-2,298433632E-1;5,324704647E0;6,837840080E0
6,613002901E2;6,895300746E-1;4,252102375E0;9,538499832E0
6,623002901E2;1,302445769E0;4,711789131E0;9,069235802E0
6,633002901E2;8,427590132E-1;5,477933407E0;8,906430244E0
6,643002901E2;-7,661445439E-2;5,937620163E0;8,427590370E0
6,653002901E2;-5,363011956E-1;4,405331135E0;9,222464561E0
6,663002901E2;-6,895300746E-1;4,865017891E0;8,274360657E0
6,673002901E2;-3,830722570E-1;5,018246651E0;7,632715225E0
6,683002901E2;-5,363011956E-1;5,631162167E0;7,948749542E0
6,693002901E2;3,830722570E-1;3,485957623E0;9,538499832E0
6,703002901E2;5,363011956E-1;3,026270866E0;9,069235802E0
6,713002901E2;5,363011956E-1;3,792415380E0;9,385271072E0
6,723002901E2;2,298433632E-1;2,719813108E0;1,113782597E1
6,733002901E2;-7,661445439E-2;3,639186621E0;8,743624687E0
6,743002901E2;-2,298433632E-1;3,639186621E0;1,018014526E1
6,753002901E2;5,363011956E-1;4,098873138E0;8,906430244E0
6,763002901E2;2,298433632E-1;3,639186621E0;8,906430244E0
6,773002901E2;-1,302445769E0;3,332728863E0;8,274360657E0
6,783002901E2;-2,375048161E0;3,485957623E0;9,864110947E0
6,793002901E2;-5,363011956E-1;3,792415380E0;8,427590370E0
6,803002901E2;7,661445439E-2;3,945644379E0;8,274360657E0
6,813002901E2;3,830722570E-1;3,792415380E0;8,590395927E0
6,823002901E2;1,302445769E0;3,179499865E0;8,743624687E0
6,833002901E2;3,830722570E-1;4,405331135E0;9,222464561E0
6,843002901E2;-3,830722570E-1;3,639186621E0;9,069235802E0
6,853002901E2;-1,608903527E0;3,945644379E0;9,222464561E0
6,863002901E2;-5,363011956E-1;3,945644379E0;8,427590370E0
6,873002901E2;2,298433632E-1;3,792415380E0;9,222464561E0
6,883002901E2;-7,661445439E-2;3,485957623E0;9,864110947E0
6,893002901E2;-2,298433632E-1;3,945644379E0;1,081221485E1
6,903002901E2;2,298433632E-1;3,639186621E0;9,538499832E0
6,913002901E2;-3,830722570E-1;4,098873138E0;8,590395927E0
6,923002901E2;-8,427590132E-1;4,865017891E0;7,632715225E0
6,933002901E2;-1,302445769E0;4,098873138E0;8,427590370E0
6,943002901E2;-1,455674648E0;4,098873138E0;8,427590370E0
6,953002901E2;-1,302445769E0;4,252102375E0;8,427590370E0
6,963002901E2;-1,149216771E0;4,098873138E0;9,222464561E0
6,973002901E2;-5,363011956E-1;4,098873138E0;8,906430244E0
6,983002901E2;-2,221819162E0;5,018246651E0;8,427590370E0
6,993002901E2;7,661445439E-2;4,405331135E0;7,316680431E0
7,003002901E2;9,959878922E-1;3,332728863E0;8,274360657E0
7,013002901E2;5,363011956E-1;3,945644379E0;8,427590370E0
7,023002901E2;2,298433632E-1;3,485957623E0;1,018014526E1
7,033002901E2;1,302445769E0;4,252102375E0;7,316680431E0
7,043002901E2;1,302445769E0;5,018246651E0;6,042964935E0
7,053002901E2;9,959878922E-1;5,324704647E0;7,316680431E0
7,063002901E2;-6,895300746E-1;3,792415380E0;9,385271072E0
7,073002901E2;-1,149216771E0;4,405331135E0;6,837840080E0
7,083002901E2;-2,375048161E0;4,405331135E0;1,018014526E1
7,093002901E2;-3,830722570E-1;4,558559895E0;6,521805286E0
7,103002901E2;-2,298433632E-1;4,252102375E0;8,906430244E0
7,113002901E2;3,830722570E-1;3,792415380E0;7,000645638E0
7,123002901E2;3,830722570E-1;4,558559895E0;8,111555099E0
7,133002901E2;-7,661445439E-2;3,332728863E0;9,701305389E0
7,143002901E2;1,149216771E0;3,179499865E0;9,385271072E0
7,153002901E2;2,298433632E-1;2,719813108E0;1,081221485E1
7,163002901E2;7,661445439E-2;3,026270866E0;7,316680431E0
7,173002901E2;-3,830722570E-1;3,026270866E0;7,469909191E0
7,183002901E2;-2,298433632E-1;2,719813108E0;1,034295177E1
7,193002901E2;-8,427590132E-1;5,018246651E0;8,274360657E0
7,203002901E2;-1,915361404E0;3,945644379E0;8,743624687E0
7,213002901E2;-2,681505919E0;4,098873138E0;7,000645638E0
7,223002901E2;-6,895300746E-1;3,332728863E0;8,743624687E0
7,233002901E2;7,661445439E-2;5,171475887E0;6,521805286E0
7,243002901E2;-8,427590132E-1;4,865017891E0;9,864110947E0
7,253002901E2;-6,895300746E-1;4,252102375E0;7,000645638E0
7,263002901E2;-1,762132406E0;4,098873138E0;6,837840080E0
7,273002901E2;7,661445439E-2;4,252102375E0;8,906430244E0
7,283002901E2;1,302445769E0;3,332728863E0;8,427590370E0
7,293002901E2;3,830722570E-1;3,179499865E0;1,018014526E1
7,303002901E2;1,455674648E0;4,252102375E0;8,743624687E0
7,313002901E2;9,959878922E-1;5,477933407E0;8,111555099E0
7,323002901E2;2,298433632E-1;4,252102375E0;9,069235802E0
7,333002901E2;-8,427590132E-1;3,945644379E0;9,222464561E0
7,343002901E2;-1,455674648E0;4,558559895E0;8,274360657E0
7,353002901E2;7,661445439E-2;3,792415380E0;8,111555099E0
7,363002901E2;-6,895300746E-1;5,171475887E0;8,906430244E0
7,373002901E2;5,363011956E-1;5,018246651E0;7,153874874E0
7,383002901E2;8,427590132E-1;4,098873138E0;8,427590370E0
7,393002901E2;-3,830722570E-1;3,945644379E0;1,018014526E1
7,403002901E2;6,895300746E-1;3,945644379E0;9,385271072E0
7,413002901E2;-3,830722570E-1;2,566584110E0;1,670195198E1
7,423002901E2;1,149216771E0;5,324704647E0;8,906430244E0
7,433002901E2;-1,302445769E0;5,477933407E0;8,906430244E0
7,443002901E2;-5,363011956E-1;4,405331135E0;8,274360657E0
7,453002901E2;3,830722570E-1;5,477933407E0;8,427590370E0
7,463002901E2;2,221819162E0;6,550535679E0;8,743624687E0
7,473002901E2;1,302445769E0;5,784391403E0;6,042964935E0
7,483002901E2;9,959878922E-1;5,324704647E0;5,880159378E0
7,493002901E2;1,762132406E0;4,405331135E0;8,427590370E0
7,503002901E2;1,762132406E0;4,558559895E0;8,274360657E0
7,513002901E2;1,762132406E0;4,865017891E0;8,274360657E0
7,523002901E2;8,427590132E-1;5,784391403E0;8,274360657E0
7,533002901E2;1,302445769E0;5,784391403E0;5,726930618E0
7,543002901E2;-8,427590132E-1;5,324704647E0;7,948749542E0
7,553002901E2;2,298433632E-1;5,171475887E0;8,427590370E0
7,563002901E2;3,830722570E-1;4,405331135E0;7,469909191E0
7,573002901E2;8,427590132E-1;4,865017891E0;6,837840080E0
7,583002901E2;7,661445439E-2;4,865017891E0;9,069235802E0
7,593002901E2;6,895300746E-1;4,711789131E0;8,743624687E0
7,603002901E2;-9,959878922E-1;5,477933407E0;8,427590370E0
7,613002901E2;-3,830722570E-1;4,405331135E0;9,069235802E0
7,623002901E2;1,149216771E0;5,784391403E0;8,274360657E0
7,633002901E2;3,830722570E-1;5,784391403E0;8,427590370E0
7,643002901E2;2,298433632E-1;4,865017891E0;7,795520782E0
7,653002901E2;3,830722570E-1;3,332728863E0;1,034295177E1
7,663002901E2;2,298433632E-1;3,945644379E0;9,385271072E0
7,673002901E2;2,068590164E0;5,018246651E0;7,153874874E0
7,683002901E2;-1,915361404E0;2,719813108E0;7,000645638E0
7,693002901E2;-6,512228489E0;1,187524080E0;4,769249916E0
7,703002901E2;-6,665457726E0;-6,512228847E-1;7,153874874E0
7,713002901E2;-1,915361404E0;1,953668594E0;7,948749542E0
7,723002901E2;-9,959878922E-1;6,550535679E0;7,000645638E0
7,733002901E2;-2,298433632E-1;4,865017891E0;7,153874874E0
7,743002901E2;2,298433632E-1;4,098873138E0;8,274360657E0
7,753002901E2;9,959878922E-1;3,179499865E0;8,274360657E0
7,763002901E2;6,895300746E-1;3,485957623E0;1,097502041E1
7,773002901E2;-8,427590132E-1;5,937620163E0;7,632715225E0
7,783002901E2;-8,427590132E-1;5,784391403E0;8,111555099E0
7,793002901E2;-7,661445439E-2;5,171475887E0;7,948749542E0
7,803002901E2;2,298433632E-1;5,477933407E0;6,521805286E0
7,813002901E2;-9,959878922E-1;3,792415380E0;9,864110947E0
7,823002901E2;7,661445439E-2;3,485957623E0;8,743624687E0
7,833002901E2;2,298433632E-1;3,792415380E0;9,385271072E0
7,843002901E2;3,830722570E-1;3,179499865E0;1,001733971E1
7,853002901E2;2,298433632E-1;3,026270866E0;9,701305389E0
7,863002901E2;-3,830722570E-1;4,252102375E0;8,906430244E0
7,873002901E2;-1,302445769E0;3,639186621E0;7,948749542E0
7,883002901E2;-2,068590164E0;2,873042107E0;1,081221485E1
7,893002901E2;-9,959878922E-1;3,179499865E0;9,538499832E0
7,903002901E2;-2,298433632E-1;3,026270866E0;9,538499832E0
7,913002901E2;7,661445439E-2;2,873042107E0;9,385271072E0
7,923002901E2;9,959878922E-1;3,945644379E0;7,948749542E0
7,933002901E2;7,661445439E-2;3,945644379E0;1,081221485E1
7,943002901E2;-3,830722570E-1;3,792415380E0;6,358999729E0
7,953002901E2;-2,298433632E-1;3,792415380E0;7,632715225E0
7,963002901E2;-5,363011956E-1;3,332728863E0;1,081221485E1
7,973002901E2;2,298433632E-1;3,179499865E0;9,538499832E0
7,983002901E2;-2,298433632E-1;2,566584110E0;9,538499832E0
7,993002901E2;-7,661445439E-2;2,873042107E0;1,113782597E1
8,003002901E2;3,830722570E-1;2,873042107E0;9,864110947E0
8,013002901E2;6,895300746E-1;2,719813108E0;9,538499832E0
8,023002901E2;9,959878922E-1;3,179499865E0;8,111555099E0
8,033002901E2;6,895300746E-1;3,026270866E0;9,701305389E0
8,043002901E2;3,830722570E-1;3,485957623E0;8,274360657E0
8,053002901E2;5,363011956E-1;3,485957623E0;8,906430244E0
8,063002901E2;-3,830722570E-1;3,332728863E0;8,427590370E0
8,073002901E2;-2,068590164E0;3,639186621E0;8,111555099E0
8,083002901E2;-3,830722570E-1;5,784391403E0;8,427590370E0
8,093002901E2;3,830722570E-1;6,397306919E0;8,111555099E0
8,103002901E2;1,762132406E0;5,018246651E0;7,948749542E0
8,113002901E2;1,455674648E0;5,018246651E0;8,743624687E0
8,123002901E2;2,068590164E0;5,631162167E0;7,153874874E0
8,133002901E2;-5,363011956E-1;5,171475887E0;1,049618053E1
8,143002901E2;-5,363011956E-1;5,477933407E0;7,632715225E0
8,153002901E2;-1,302445769E0;8,810662031E-1;9,222464561E0
8,163002901E2;-8,427590132E-1;-9,576807022E-1;1,049618053E1
8,173002901E2;-7,661445439E-2;-3,447650373E-1;8,427590370E0
8,183002901E2;-2,298433632E-1;-3,830722719E-2;9,222464561E0
8,193002901E2;-2,834734917E0;8,810662031E-1;2,036029053E1
8,203002901E2;-9,959878922E-1;2,260126352E0;6,358999729E0
8,213002901E2;-9,959878922E-1;2,681505978E-1;1,208592987E1
8,223002901E2;-2,298433632E-1;-4,979939461E-1;1,304361057E1
8,233002901E2;-1,302445769E0;1,187524080E0;7,000645638E0
8,243002901E2;-1,762132406E0;1,187524080E0;7,632715225E0
8,253002901E2;-9,959878922E-1;1,493981838E0;1,018014526E1
8,263002901E2;5,363011956E-1;2,106897593E0;7,948749542E0
8,273002901E2;-5,363011956E-1;4,558559895E0;9,538499832E0
8,283002901E2;-2,298433632E-1;4,711789131E0;5,564124584E0
8,293002901E2;-7,661445439E-2;5,937620163E0;5,085284233E0
8,303002901E2;7,661445439E-2;4,252102375E0;1,097502041E1
8,313002901E2;5,363011956E-1;5,324704647E0;7,000645638E0
8,323002901E2;-1,762132406E0;4,711789131E0;6,675034523E0
8,333002901E2;-2,681505919E0;4,098873138E0;1,034295177E1
8,343002901E2;5,363011956E-1;3,026270866E0;8,274360657E0
8,353002901E2;8,427590132E-1;4,558559895E0;5,248090267E0
8,363002901E2;-2,375048161E0;4,558559895E0;1,081221485E1
8,373002901E2;1,149216771E0;5,631162167E0;6,205770969E0
8,383002901E2;6,895300746E-1;4,252102375E0;8,274360657E0
8,393002901E2;-8,427590132E-1;6,244078159E0;6,358999729E0
8,403002901E2;-3,830722570E-1;5,171475887E0;9,701305389E0
8,413002901E2;1,455674648E0;6,090848923E0;6,205770969E0
8,423002901E2;6,895300746E-1;5,477933407E0;7,316680431E0
8,433002901E2;3,830722570E-1;5,631162167E0;8,427590370E0
8,443002901E2;-2,987963676E0;3,026270866E0;1,431732655E1
8,453002901E2;-2,221819162E0;3,485957623E0;1,018014526E1
8,463002901E2;-3,830722570E-1;3,026270866E0;1,272757626E1
8,473002901E2;3,830722570E-1;3,179499865E0;7,632715225E0
8,483002901E2;5,363011956E-1;4,252102375E0;7,632715225E0
8,493002901E2;-5,363011956E-1;2,106897593E0;7,795520782E0
8,503002901E2;-8,427590132E-1;2,873042107E0;7,153874874E0
8,513002901E2;5,363011956E-1;4,558559895E0;4,606443882E0
8,523002901E2;-6,895300746E-1;2,260126352E0;1,097502041E1
8,533002901E2;1,149216771E0;3,026270866E0;7,469909191E0
8,543002901E2;-7,661445439E-2;2,873042107E0;9,222464561E0
8,553002901E2;-7,661445439E-2;6,397306919E0;6,675034523E0
8,563002901E2;-5,363011956E-1;3,026270866E0;8,743624687E0
8,573002901E2;-5,363011956E-1;1,034295082E0;1,160709000E1
8,583002901E2;-2,298433632E-1;1,493981838E0;1,335964584E1
8,593002901E2;9,959878922E-1;3,485957623E0;9,222464561E0
8,603002901E2;1,608903527E0;2,260126352E0;9,069235802E0
8,613002901E2;1,762132406E0;3,485957623E0;8,111555099E0
8,623002901E2;-2,298433632E-1;3,639186621E0;1,081221485E1
8,633002901E2;-1,762132406E0;2,260126352E0;9,701305389E0
8,643002901E2;-2,987963676E0;2,413355350E0;1,001733971E1
8,653002901E2;-1,302445769E0;2,873042107E0;9,385271072E0
8,663002901E2;1,608903527E0;4,213795066E-1;1,097502041E1
8,673002901E2;-7,661445439E-2;1,493981838E0;8,906430244E0
8,683002901E2;5,363011956E-1;2,719813108E0;7,795520782E0
8,693002901E2;-1,302445769E0;2,873042107E0;9,864110947E0
8,703002901E2;-2,987963676E0;3,026270866E0;1,176989555E1
8,713002901E2;1,149216771E0;3,792415380E0;2,863465309E0
8,723002901E2;1,762132406E0;3,026270866E0;3,658340216E0
8,733002901E2;7,661445439E-2;4,865017891E0;7,316680431E0
8,743002901E2;3,830722570E-1;3,639186621E0;1,208592987E1
8,753002901E2;2,375048161E0;3,945644379E0;6,675034523E0
8,763002901E2;2,375048161E0;4,252102375E0;4,932055473E0
8,773002901E2;5,363011956E-1;1,800439715E0;1,145386124E1
8,783002901E2;-6,895300746E-1;4,098873138E0;8,427590370E0
8,793002901E2;3,830722570E-1;2,873042107E0;1,145386124E1
8,803002901E2;-7,661445439E-2;1,149216816E-1;1,145386124E1
8,813002901E2;1,915361404E0;2,106897593E0;8,906430244E0
8,823002901E2;-7,661445439E-2;2,566584110E0;8,427590370E0
8,833002901E2;1,302445769E0;1,647210717E0;8,590395927E0
8,843002901E2;6,895300746E-1;1,953668594E0;6,358999729E0
8,853002901E2;8,427590132E-1;3,639186621E0;1,034295177E1
8,863002901E2;-7,661445439E-2;1,953668594E0;9,385271072E0
8,873002901E2;-7,661445439E-2;1,647210717E0;1,001733971E1
8,883002901E2;-9,959878922E-1;1,953668594E0;7,948749542E0
8,893002901E2;3,830722570E-1;2,719813108E0;7,948749542E0
8,903002901E2;-8,427590132E-1;1,340752959E0;1,145386124E1
8,913002901E2;-1,455674648E0;1,187524080E0;1,065898609E1
8,923002901E2;-3,830722570E-1;1,647210717E0;7,632715225E0
8,933002901E2;9,959878922E-1;1,647210717E0;9,385271072E0
8,943002901E2;-1,455674648E0;-3,447650373E-1;1,145386124E1
8,953002901E2;-7,661445439E-2;2,681505978E-1;7,153874874E0
8,963002901E2;-7,661445439E-2;7,278373241E-1;8,906430244E0
8,973002901E2;-1,762132406E0;2,681505978E-1;1,049618053E1
8,983002901E2;3,830722570E-1;1,800439715E0;5,880159378E0
8,993002901E2;-7,661445439E-2;1,034295082E0;9,701305389E0
9,003002901E2;3,830722570E-1;2,719813108E0;9,222464561E0
9,013002901E2;-6,895300746E-1;2,413355350E0;7,948749542E0
9,023002901E2;-1,915361404E0;1,953668594E0;9,538499832E0
9,033002901E2;-8,427590132E-1;-4,979939461E-1;5,564124584E0
9,043002901E2;8,427590132E-1;8,810662031E-1;1,193270111E1
9,053002901E2;1,302445769E0;1,647210717E0;1,145386124E1
9,063002901E2;1,455674648E0;1,953668594E0;8,906430244E0
9,073002901E2;6,895300746E-1;1,647210717E0;8,274360657E0
9,083002901E2;1,762132406E0;4,213795066E-1;8,590395927E0
9,093002901E2;3,830722570E-1;8,810662031E-1;9,701305389E0
9,103002901E2;-7,661445439E-2;2,873042107E0;9,701305389E0
9,113002901E2;9,959878922E-1;3,332728863E0;9,864110947E0
9,123002901E2;7,661445439E-2;1,953668594E0;6,837840080E0
9,133002901E2;8,427590132E-1;2,413355350E0;8,274360657E0
9,143002901E2;2,221819162E0;2,719813108E0;7,469909191E0
9,153002901E2;2,298433632E-1;2,873042107E0;5,564124584E0
9,163002901E2;-1,149216771E0;7,278373241E-1;1,511220074E1
9,173002901E2;-1,149216771E0;1,340752959E0;1,065898609E1
9,183002901E2;-3,830722570E-1;2,260126352E0;8,590395927E0
9,193002901E2;1,149216771E0;2,260126352E0;6,521805286E0
9,203002901E2;1,608903527E0;2,719813108E0;1,081221485E1
9,213002901E2;5,363011956E-1;4,252102375E0;7,469909191E0
9,223002901E2;-7,661445439E-2;2,566584110E0;9,538499832E0
9,233002901E2;-1,149216771E0;2,566584110E0;1,001733971E1
9,243002901E2;-1,455674648E0;1,493981838E0;1,034295177E1
9,253002901E2;-5,363011956E-1;2,260126352E0;7,000645638E0
9,263002901E2;-3,830722570E-1;2,106897593E0;8,906430244E0
9,273002901E2;-2,298433632E-1;8,810662031E-1;1,448013210E1
9,283002901E2;-1,149216771E0;1,800439715E0;1,176989555E1
9,293002901E2;-7,661445439E-2;1,647210717E0;9,538499832E0
9,303002901E2;-3,830722570E-1;1,034295082E0;9,864110947E0
9,313002901E2;-1,149216771E0;2,719813108E0;1,034295177E1
9,323002901E2;-3,830722570E-1;4,865017891E0;1,034295177E1
9,333002901E2;-2,298433632E-1;4,098873138E0;8,590395927E0
9,343002901E2;5,363011956E-1;2,873042107E0;9,701305389E0
9,353002901E2;5,363011956E-1;1,953668594E0;1,018014526E1
9,363002901E2;6,895300746E-1;2,873042107E0;8,906430244E0
9,373002901E2;-9,959878922E-1;1,647210717E0;1,129105568E1
9,383002901E2;8,427590132E-1;2,106897593E0;7,948749542E0
9,393002901E2;5,363011956E-1;1,647210717E0;8,590395927E0
9,403002901E2;5,363011956E-1;1,493981838E0;1,001733971E1
9,413002901E2;2,298433632E-1;2,260126352E0;9,701305389E0
9,423002901E2;-7,661445439E-2;2,719813108E0;1,129105568E1
9,433002901E2;1,149216771E0;1,953668594E0;8,743624687E0
9,443002901E2;-8,427590132E-1;5,018246651E0;8,590395927E0
9,453002901E2;-2,298433632E-1;4,252102375E0;1,065898609E1
9,463002901E2;-1,455674648E0;4,252102375E0;8,111555099E0
9,473002901E2;-3,830722570E-1;3,332728863E0;1,081221485E1
9,483002901E2;-3,830722570E-1;2,719813108E0;6,837840080E0
9,493002901E2;-3,830722570E-1;2,260126352E0;1,065898609E1
9,503002901E2;-7,661445439E-2;3,945644379E0;7,316680431E0
9,513002901E2;1,915361404E0;5,324704647E0;6,205770969E0
9,523002901E2;2,298433632E-1;2,566584110E0;6,521805286E0
9,533002901E2;7,661445439E-2;2,260126352E0;9,538499832E0
9,543002901E2;9,959878922E-1;2,566584110E0;1,049618053E1
9,553002901E2;-6,895300746E-1;3,026270866E0;9,385271072E0
9,563002901E2;-2,298433632E-1;1,953668594E0;1,463336086E1
9,573002901E2;-9,959878922E-1;1,187524080E0;1,081221485E1
9,583002901E2;-2,375048161E0;1,493981838E0;9,864110947E0
9,593002901E2;-1,149216771E0;7,278373241E-1;1,463336086E1
9,603002901E2;3,830722570E-1;2,873042107E0;7,948749542E0
9,613002901E2;6,895300746E-1;1,647210717E0;9,385271072E0
9,623002901E2;8,427590132E-1;3,792415380E0;1,001733971E1
9,633002901E2;8,427590132E-1;2,106897593E0;1,081221485E1
9,643002901E2;9,959878922E-1;1,647210717E0;9,701305389E0
9,653002901E2;2,298433632E-1;1,647210717E0;7,469909191E0
9,663002901E2;-1,608903527E0;1,340752959E0;1,193270111E1
9,673002901E2;-5,363011956E-1;8,810662031E-1;1,001733971E1
9,683002901E2;2,298433632E-1;1,034295082E0;9,538499832E0
9,693002901E2;-7,661445439E-2;8,810662031E-1;1,065898609E1
9,703002901E2;3,830722570E-1;1,647210717E0;9,864110947E0
9,713002901E2;8,427590132E-1;2,873042107E0;4,606443882E0
9,723002901E2;-1,762132406E0;1,493981838E0;1,383848572E1
9,733002901E2;-5,363011956E-1;1,800439715E0;9,864110947E0
9,743002901E2;3,830722570E-1;1,953668594E0;9,701305389E0
9,753002901E2;1,149216771E0;1,493981838E0;1,049618053E1
9,763002901E2;5,363011956E-1;1,800439715E0;8,743624687E0
9,773002901E2;9,959878922E-1;1,800439715E0;1,018014526E1
9,783002901E2;7,661445439E-2;2,566584110E0;7,795520782E0
9,793002901E2;-2,221819162E0;4,405331135E0;9,222464561E0
9,803002901E2;-3,830722570E-1;4,252102375E0;8,427590370E0
9,813002901E2;-9,959878922E-1;3,026270866E0;1,129105568E1
9,823002901E2;6,895300746E-1;2,566584110E0;1,018014526E1
9,833002901E2;-1,302445769E0;1,953668594E0;1,034295177E1
9,843002901E2;6,895300746E-1;2,873042107E0;9,701305389E0
9,853002901E2;3,830722570E-1;1,187524080E0;1,241154194E1
9,863002901E2;1,455674648E0;3,485957623E0;5,726930618E0
9,873002901E2;-8,427590132E-1;2,873042107E0;1,367568016E1
9,883002901E2;1,455674648E0;3,179499865E0;5,880159378E0
9,893002901E2;-8,427590132E-1;3,026270866E0;6,521805286E0
9,903002901E2;-1,149216771E0;1,953668594E0;8,427590370E0
9,913002901E2;-1,455674648E0;3,332728863E0;8,427590370E0
9,923002901E2;-2,298433632E-1;1,034295082E0;1,383848572E1
9,933002901E2;1,915361404E0;8,810662031E-1;1,145386124E1
9,943002901E2;8,427590132E-1;3,332728863E0;4,769249916E0
9,953002901E2;1,915361404E0;4,405331135E0;3,811569214E0
9,963002901E2;7,661445439E-2;2,413355350E0;9,222464561E0
9,973002901E2;-1,302445769E0;2,719813108E0;9,069235802E0
9,983002901E2;-3,830722570E-1;2,566584110E0;8,274360657E0
9,993002901E2;-2,298433632E-1;1,493981838E0;1,081221485E1
1,000300290E3;3,830722570E-1;2,106897593E0;6,042964935E0
1,001300290E3;1,455674648E0;2,719813108E0;7,153874874E0
1,002300290E3;1,608903527E0;3,179499865E0;8,427590370E0
1,003300290E3;5,363011956E-1;3,179499865E0;4,932055473E0
1,004300290E3;7,661445439E-2;3,179499865E0;6,675034523E0
1,005300290E3;-1,149216771E0;3,485957623E0;1,097502041E1
1,006300290E3;-1,149216771E0;2,413355350E0;1,463336086E1
1,007300290E3;8,427590132E-1;1,647210717E0;1,288080502E1
1,008300290E3;3,141192675E0;3,485957623E0;7,153874874E0
1,009300290E3;1,149216771E0;3,792415380E0;6,675034523E0
1,010300290E3;-1,149216771E0;2,719813108E0;9,538499832E0
1,011300290E3;-3,141192675E0;3,026270866E0;1,113782597E1
1,012300290E3;-2,375048161E0;1,800439715E0;1,527500725E1
1,013300290E3;-8,427590132E-1;2,719813108E0;7,316680431E0
1,014300290E3;1,608903527E0;2,413355350E0;9,385271072E0
1,015300290E3;-7,661445439E-2;1,493981838E0;1,320641613E1
1,016300290E3;5,363011956E-1;2,719813108E0;6,521805286E0
1,017300290E3;-1,915361404E0;1,953668594E0;1,479616642E1
1,018300290E3;-5,363011956E-1;2,566584110E0;7,795520782E0
1,019300290E3;1,149216771E0;3,179499865E0;8,274360657E0
1,020300290E3;6,895300746E-1;3,639186621E0;1,034295177E1
1,021300290E3;1,149216771E0;3,945644379E0;9,864110947E0
1,022300290E3;1,302445769E0;1,647210717E0;1,304361057E1
1,023300290E3;5,363011956E-1;3,332728863E0;7,153874874E0
1,024300290E3;-2,375048161E0;4,405331135E0;1,160709000E1
1,025300290E3;-9,959878922E-1;3,792415380E0;8,111555099E0
1,026300290E3;8,427590132E-1;3,179499865E0;5,401319027E0
1,027300290E3;1,302445769E0;3,332728863E0;9,385271072E0
1,028300290E3;2,298433632E-1;2,873042107E0;1,049618053E1
1,029300290E3;-2,298433632E-1;3,332728863E0;7,632715225E0
1,030300290E3;-2,298433632E-1;2,413355350E0;1,097502041E1
1,031300290E3;-6,895300746E-1;3,332728863E0;8,427590370E0
1,032300290E3;6,895300746E-1;1,800439715E0;8,743624687E0
1,033300290E3;2,298433632E-1;4,405331135E0;7,795520782E0
1,034300290E3;2,298433632E-1;3,945644379E0;1,081221485E1
1,035300290E3;-1,302445769E0;3,639186621E0;9,385271072E0
1,036300290E3;-7,661445439E-2;5,171475887E0;6,675034523E0
1,037300290E3;-2,298433632E-1;3,179499865E0;1,081221485E1
1,038300290E3;1,608903527E0;3,639186621E0;6,358999729E0
1,039300290E3;5,363011956E-1;3,945644379E0;8,274360657E0
1,040300290E3;-7,661445439E-2;3,639186621E0;9,701305389E0
1,041300290E3;-2,298433632E-1;3,485957623E0;8,906430244E0
1,042300290E3;1,762132406E0;4,252102375E0;4,290409565E0
1,043300290E3;5,363011956E-1;4,865017891E0;1,113782597E1
1,044300290E3;-9,959878922E-1;4,098873138E0;1,065898609E1
1,045300290E3;8,427590132E-1;5,784391403E0;7,000645638E0
1,046300290E3;5,363011956E-1;3,179499865E0;9,864110947E0
1,047300290E3;1,762132406E0;4,711789131E0;6,521805286E0
1,048300290E3;2,681505919E0;6,244078159E0;8,427590370E0
1,049300290E3;-1,149216771E0;6,397306919E0;1,145386124E1
1,050300290E3;2,221819162E0;5,018246651E0;7,469909191E0
1,051300290E3;8,427590132E-1;3,792415380E0;4,453215122E0
1,052300290E3;6,895300746E-1;5,324704647E0;1,193270111E1
1,053300290E3;1,762132406E0;4,098873138E0;8,743624687E0
1,054300290E3;1,608903527E0;5,477933407E0;7,000645638E0
1,055300290E3;8,427590132E-1;4,711789131E0;8,427590370E0
1,056300290E3;5,363011956E-1;5,937620163E0;8,111555099E0
1,057300290E3;8,427590132E-1;6,090848923E0;7,469909191E0
1,058300290E3;1,608903527E0;5,784391403E0;8,111555099E0
1,059300290E3;2,375048161E0;5,018246651E0;8,111555099E0
1,060300290E3;2,221819162E0;4,865017891E0;7,795520782E0
1,061300290E3;2,375048161E0;4,405331135E0;8,111555099E0
1,062300290E3;8,427590132E-1;5,784391403E0;7,948749542E0
1,063300290E3;6,895300746E-1;6,550535679E0;7,316680431E0
1,064300290E3;6,895300746E-1;6,703764915E0;7,000645638E0
1,065300290E3;5,363011956E-1;6,550535679E0;7,632715225E0
1,066300290E3;-1,149216771E0;5,018246651E0;8,590395927E0
1,067300290E3;9,959878922E-1;5,477933407E0;8,743624687E0
1,068300290E3;-7,661445439E-2;4,865017891E0;8,111555099E0
1,069300290E3;-7,661445439E-2;5,784391403E0;8,274360657E0
1,070300290E3;2,221819162E0;5,018246651E0;8,743624687E0
1,071300290E3;7,661445439E-2;5,324704647E0;9,222464561E0
1,072300290E3;9,959878922E-1;4,252102375E0;8,906430244E0
1,073300290E3;-3,830722570E-1;3,485957623E0;8,111555099E0
1,074300290E3;8,427590132E-1;3,792415380E0;8,274360657E0
1,075300290E3;6,895300746E-1;4,405331135E0;8,590395927E0
1,076300290E3;5,363011956E-1;3,792415380E0;7,948749542E0
1,077300290E3;1,149216771E0;3,639186621E0;8,111555099E0
1,078300290E3;5,363011956E-1;3,945644379E0;8,590395927E0
1,079300290E3;8,427590132E-1;5,018246651E0;8,274360657E0
1,080300290E3;1,302445769E0;4,252102375E0;8,906430244E0
1,081300290E3;7,661445439E-2;5,937620163E0;5,564124584E0
1,082300290E3;7,661445439E-2;2,566584110E0;1,097502041E1
1,083300290E3;-6,895300746E-1;3,332728863E0;9,864110947E0
1,084300290E3;-8,427590132E-1;2,260126352E0;1,241154194E1
1,085300290E3;3,830722570E-1;2,873042107E0;8,274360657E0
1,086300290E3;-9,959878922E-1;3,945644379E0;7,000645638E0
1,087300290E3;3,830722570E-1;3,179499865E0;9,538499832E0
1,088300290E3;6,895300746E-1;2,260126352E0;1,097502041E1
1,089300290E3;7,661445439E-2;4,098873138E0;1,034295177E1
1,090300290E3;-1,302445769E0;2,873042107E0;8,743624687E0
1,091300290E3;-3,830722570E-1;3,179499865E0;9,538499832E0
1,092300290E3;-1,915361404E0;2,413355350E0;1,065898609E1
1,093300290E3;-1,762132406E0;1,340752959E0;1,400129128E1
1,094300290E3;2,298433632E-1;2,873042107E0;4,932055473E0
1,095300290E3;1,149216771E0;4,558559895E0;6,358999729E0
1,096300290E3;-2,068590164E0;4,098873138E0;9,069235802E0
1,097300290E3;-9,959878922E-1;4,098873138E0;8,743624687E0
1,098300290E3;3,830722570E-1;5,784391403E0;7,316680431E0
1,099300290E3;2,298433632E-1;6,703764915E0;7,469909191E0
1,100300290E3;-7,661445439E-2;6,703764915E0;7,948749542E0
1,101300290E3;9,959878922E-1;4,558559895E0;9,385271072E0
1,102300290E3;-3,830722570E-1;3,485957623E0;8,906430244E0
1,103300290E3;6,895300746E-1;5,477933407E0;9,538499832E0
1,104300290E3;7,661445439E-2;3,332728863E0;8,906430244E0
1,105300290E3;1,608903527E0;3,332728863E0;6,675034523E0
1,106300290E3;2,298433632E-1;3,639186621E0;7,000645638E0
1,107300290E3;-1,149216771E0;3,026270866E0;9,069235802E0
1,108300290E3;-2,221819162E0;3,332728863E0;1,081221485E1
1,109300290E3;-2,221819162E0;2,566584110E0;1,224873543E1
1,110300290E3;-1,302445769E0;2,413355350E0;9,864110947E0
1,111300290E3;-2,298433632E-1;2,873042107E0;8,743624687E0
1,112300290E3;2,298433632E-1;2,566584110E0;9,864110947E0
1,113300290E3;7,661445439E-2;1,800439715E0;1,097502041E1
1,114300290E3;1,608903527E0;2,873042107E0;9,701305389E0
1,115300290E3;3,830722570E-1;2,260126352E0;9,069235802E0
1,116300290E3;2,298433632E-1;2,719813108E0;9,069235802E0
1,117300290E3;-8,427590132E-1;1,800439715E0;9,222464561E0
1,118300290E3;-1,149216771E0;2,719813108E0;8,274360657E0
1,119300290E3;2,298433632E-1;4,711789131E0;8,111555099E0
1,120300290E3;-8,427590132E-1;1,800439715E0;1,081221485E1
1,121300290E3;9,959878922E-1;4,098873138E0;6,205770969E0
1,122300290E3;8,427590132E-1;1,493981838E0;8,743624687E0
1,123300290E3;7,661445439E-2;2,106897593E0;7,469909191E0
1,124300290E3;2,298433632E-1;3,026270866E0;9,538499832E0
1,125300290E3;-8,427590132E-1;1,187524080E0;1,479616642E1
1,126300290E3;-3,830722570E-1;2,566584110E0;6,521805286E0
1,127300290E3;-2,298433632E-1;2,873042107E0;8,427590370E0
1,128300290E3;-3,754108191E0;3,179499865E0;8,274360657E0
1,129300290E3;-9,959878922E-1;1,340752959E0;1,224873543E1
1,130300290E3;-2,834734917E0;2,566584110E0;1,001733971E1
1,131300290E3;-2,681505919E0;1,187524080E0;1,049618053E1
1,132300290E3;-2,528276920E0;1,493981838E0;8,906430244E0
1,133300290E3;-1,302445769E0;4,558559895E0;9,864110947E0
1,134300290E3;-2,298433632E-1;3,179499865E0;8,906430244E0
1,135300290E3;-8,427590132E-1;3,792415380E0;9,222464561E0
1,136300290E3;-6,895300746E-1;3,332728863E0;1,145386124E1
1,137300290E3;-2,375048161E0;2,566584110E0;8,906430244E0
1,138300290E3;-2,221819162E0;1,953668594E0;8,906430244E0
1,139300290E3;-1,915361404E0;3,179499865E0;8,906430244E0
1,140300290E3;-2,068590164E0;3,639186621E0;8,111555099E0
1,141300290E3;-2,068590164E0;2,260126352E0;9,222464561E0
1,142300290E3;1,302445769E0;2,260126352E0;1,001733971E1
1,143300290E3;3,830722570E-1;2,413355350E0;7,153874874E0
1,144300290E3;1,455674648E0;1,800439715E0;1,034295177E1
1,145300290E3;7,661445439E-2;1,647210717E0;1,001733971E1
1,146300290E3;1,149216771E0;2,106897593E0;9,701305389E0
1,147300290E3;1,608903527E0;1,493981838E0;9,701305389E0
1,148300290E3;-7,661445439E-2;2,566584110E0;9,538499832E0
1,149300290E3;9,959878922E-1;1,800439715E0;1,065898609E1
1,150300290E3;9,959878922E-1;3,179499865E0;7,153874874E0
1,151300290E3;-8,427590132E-1;2,566584110E0;9,385271072E0
1,152300290E3;-1,302445769E0;3,026270866E0;7,948749542E0
1,153300290E3;5,363011956E-1;4,558559895E0;9,069235802E0
1,154300290E3;2,298433632E-1;3,945644379E0;9,538499832E0
1,155300290E3;-3,830722570E-1;1,340752959E0;8,111555099E0
1,156300290E3;8,427590132E-1;-1,264138460E0;1,049618053E1
1,157300290E3;5,363011956E-1;-6,512228847E-1;8,906430244E0
1,158300290E3;9,959878922E-1;-6,512228847E-1;8,743624687E0
1,159300290E3;-5,363011956E-1;-6,512228847E-1;1,081221485E1
1,160300290E3;-2,221819162E0;-1,417367458E0;1,049618053E1
1,161300290E3;-4,826710701E0;-1,264138460E0;8,111555099E0
1,162300290E3;-4,060565948E0;2,719813108E0;4,453215122E0
1,163300290E3;-3,907337189E0;1,034295082E0;1,081221485E1
1,164300290E3;-6,895300746E-1;8,810662031E-1;4,932055473E0
1,165300290E3;-2,987963676E0;2,681505978E-1;1,129105568E1
1,166300290E3;-3,141192675E0;1,034295082E0;8,743624687E0
1,167300290E3;-7,661445439E-2;2,681505978E-1;7,632715225E0
1,168300290E3;-2,068590164E0;1,149216816E-1;9,385271072E0
1,169300290E3;-4,213795185E0;1,647210717E0;9,069235802E0
1,170300290E3;-2,834734917E0;-4,979939461E-1;1,145386124E1
1,171300290E3;9,959878922E-1;-4,788403511E0;7,469909191E0
1,172300290E3;-1,608903527E0;-4,328716755E0;9,385271072E0
1,173300290E3;-2,375048161E0;-1,417367458E0;8,427590370E0
1,174300290E3;-3,447650433E0;1,034295082E0;9,538499832E0
1,175300290E3;-2,068590164E0;-1,877054095E0;1,208592987E1
1,176300290E3;-3,754108191E0;-2,489969730E0;8,111555099E0
1,177300290E3;-2,834734917E0;-4,979939461E-1;4,932055473E0
1,178300290E3;-4,367023945E0;-2,030282974E0;1,018014526E1
1,179300290E3;-3,141192675E0;-4,979939461E-1;9,701305389E0
1,180300290E3;-4,520252705E0;-2,643198729E0;8,274360657E0
1,181300290E3;-2,298433632E-1;5,631162167E0;9,069235802E0
1,182300290E3;1,762132406E0;6,090848923E0;8,743624687E0
1,183300290E3;-6,358999729E0;4,865017891E0;6,042964935E0
1,184300290E3;4,520252705E0;1,187524080E0;8,590395927E0
1,185300290E3;-5,363011956E-1;4,213795066E-1;1,049618053E1
1,186300290E3;-2,298433632E-1;-3,447650373E-1;1,065898609E1
1,187300290E3;2,834734917E0;4,213795066E-1;1,463336086E1
1,188300290E3;-9,959878922E-1;-3,447650373E-1;9,222464561E0
1,189300290E3;8,427590132E-1;2,681505978E-1;8,590395927E0
1,190300290E3;-8,427590132E-1;-9,576807022E-1;9,069235802E0
1,191300290E3;7,661445439E-2;5,746083856E-1;9,864110947E0
1,192300290E3;7,661445439E-2;-1,110909581E0;1,065898609E1
1,193300290E3;-7,661445439E-2;2,681505978E-1;1,097502041E1
1,194300290E3;-1,455674648E0;7,278373241E-1;9,701305389E0
1,195300290E3;-1,302445769E0;4,213795066E-1;9,069235802E0
1,196300290E3;-1,455674648E0;1,149216816E-1;9,222464561E0
1,197300290E3;8,427590132E-1;-4,979939461E-1;1,049618053E1
1,198300290E3;-1,302445769E0;1,800439715E0;1,034295177E1
1,199300290E3;1,455674648E0;6,090848923E0;5,401319027E0
1,200300290E3;-1,302445769E0;3,639186621E0;8,274360657E0
1,201300290E3;7,661445439E-2;2,413355350E0;7,469909191E0
1,202300290E3;7,661445439E-2;4,252102375E0;1,081221485E1
1,203300290E3;-6,895300746E-1;3,332728863E0;1,097502041E1
1,204300290E3;-1,455674648E0;3,026270866E0;5,880159378E0
1,205300290E3;-2,834734917E0;2,719813108E0;6,837840080E0
1,206300290E3;-1,302445769E0;2,873042107E0;1,049618053E1
1,207300290E3;-1,302445769E0;3,945644379E0;9,222464561E0
1,208300290E3;-1,762132406E0;3,332728863E0;5,248090267E0
1,209300290E3;-1,455674648E0;1,647210717E0;8,590395927E0
1,210300290E3;7,661445439E-2;1,034295082E0;9,222464561E0
1,211300290E3;-7,661445439E-2;3,179499865E0;1,113782597E1
1,212300290E3;-5,363011956E-1;3,026270866E0;5,880159378E0
1,213300290E3;-1,149216771E0;1,187524080E0;7,000645638E0
1,214300290E3;-3,830722570E-1;2,681505978E-1;1,415452003E1
1,215300290E3;-1,302445769E0;3,026270866E0;9,864110947E0
1,216300290E3;-2,298433632E-1;2,566584110E0;6,837840080E0
1,217300290E3;1,149216771E0;1,493981838E0;7,316680431E0
1,218300290E3;6,895300746E-1;2,719813108E0;1,001733971E1
1,219300290E3;2,298433632E-1;3,792415380E0;1,049618053E1
1,220300290E3;-2,681505919E0;2,873042107E0;9,222464561E0
1,221300290E3;4,826710701E0;-1,915361285E-1;6,042964935E0
1,222300290E3;1,608903527E0;1,340752959E0;7,948749542E0
1,223300290E3;-3,830722570E-1;-1,264138460E0;9,864110947E0
1,224300290E3;6,895300746E-1;-9,576807022E-1;9,538499832E0
1,225300290E3;-2,528276920E0;8,810662031E-1;9,701305389E0
1,226300290E3;6,895300746E-1;-8,044517636E-1;9,864110947E0
1,227300290E3;-8,504204750E0;-4,175487995E0;1,097502041E1
1,228300290E3;-1,049618053E1;-2,643198729E0;5,401319027E0
1,229300290E3;-6,358999729E0;-2,489969730E0;3,016694069E0
1,230300290E3;-9,730035782E0;-2,643198729E0;3,658340216E0
1,231300290E3;-2,375048161E0;-2,183511972E0;9,385271072E0
1,232300290E3;4,213795185E0;1,034295082E0;8,590395927E0
1,233300290E3;2,528276920E0;2,260126352E0;7,469909191E0
1,234300290E3;2,221819162E0;1,340752959E0;7,469909191E0
1,235300290E3;9,959878922E-1;5,477933407E0;8,427590370E0
1,236300290E3;-7,661445439E-2;3,639186621E0;5,880159378E0
1,237300290E3;8,427590132E-1;3,945644379E0;7,469909191E0
1,238300290E3;-1,302445769E0;3,639186621E0;9,222464561E0
1,239300290E3;-2,528276920E0;5,171475887E0;1,097502041E1
1,240300290E3;-2,068590164E0;3,179499865E0;9,069235802E0
1,241300290E3;7,661445439E-2;5,018246651E0;6,205770969E0
1,242300290E3;-5,363011956E-1;3,945644379E0;3,495534420E0
1,243300290E3;-6,895300746E-1;1,340752959E0;1,224873543E1
1,244300290E3;-9,959878922E-1;3,485957623E0;9,701305389E0
1,245300290E3;2,221819162E0;4,098873138E0;1,001733971E1
1,246300290E3;-5,363011956E-1;3,639186621E0;6,358999729E0
1,247300290E3;-2,298433632E-1;1,800439715E0;7,795520782E0
1,248300290E3;1,608903527E0;-4,979939461E-1;1,511220074E1
1,249300290E3;-8,427590132E-1;5,018246651E0;9,385271072E0
1,250300290E3;-1,302445769E0;3,026270866E0;6,358999729E0
1,251300290E3;1,302445769E0;1,187524080E0;6,675034523E0
1,252300290E3;3,830722570E-1;1,800439715E0;7,632715225E0
1,253300290E3;2,987963676E0;8,810662031E-1;1,224873543E1
1,254300290E3;1,149216771E0;2,106897593E0;8,743624687E0
1,255300290E3;5,363011956E-1;1,493981838E0;6,042964935E0
1,256300290E3;4,826710701E0;3,332728863E0;1,256477070E1
1,257300290E3;1,915361404E0;4,865017891E0;8,427590370E0
1,258300290E3;2,068590164E0;2,873042107E0;6,042964935E0
1,259300290E3;2,834734917E0;2,719813108E0;1,081221485E1
1,260300290E3;9,959878922E-1;4,711789131E0;6,837840080E0
1,261300290E3;-3,830722570E-1;3,639186621E0;9,701305389E0
1,262300290E3;5,363011956E-1;6,550535679E0;7,153874874E0
1,263300290E3;1,149216771E0;3,639186621E0;3,974374771E0
1,264300290E3;1,608903527E0;6,397306919E0;6,042964935E0
1,265300290E3;2,375048161E0;7,316680431E0;8,274360657E0
1,266300290E3;2,221819162E0;3,945644379E0;6,358999729E0
1,267300290E3;6,895300746E-1;4,252102375E0;7,000645638E0
1,268300290E3;1,915361404E0;5,324704647E0;6,837840080E0
1,269300290E3;9,959878922E-1;5,477933407E0;7,153874874E0
1,270300290E3;9,959878922E-1;6,244078159E0;9,864110947E0
1,271300290E3;1,149216771E0;4,405331135E0;5,726930618E0
1,272300290E3;9,959878922E-1;5,784391403E0;6,837840080E0
1,273300290E3;9,959878922E-1;6,397306919E0;9,069235802E0
1,274300290E3;2,221819162E0;4,405331135E0;6,521805286E0
1,275300290E3;2,298433632E-1;5,937620163E0;7,469909191E0
1,276300290E3;2,987963676E0;5,324704647E0;1,145386124E1
1,277300290E3;8,427590132E-1;3,179499865E0;7,000645638E0
1,278300290E3;3,830722570E-1;4,405331135E0;6,837840080E0
1,279300290E3;1,608903527E0;4,711789131E0;8,274360657E0
1,280300290E3;-2,298433632E-1;4,865017891E0;9,222464561E0
1,281300290E3;8,427590132E-1;1,647210717E0;6,837840080E0
1,282300290E3;1,915361404E0;2,873042107E0;8,906430244E0
1,283300290E3;2,068590164E0;3,945644379E0;1,081221485E1
1,284300290E3;2,068590164E0;3,945644379E0;6,205770969E0
1,285300290E3;2,068590164E0;8,810662031E-1;6,358999729E0
1,286300290E3;2,068590164E0;1,647210717E0;7,000645638E0
1,287300290E3;2,834734917E0;3,639186621E0;1,241154194E1
1,288300290E3;-2,298433632E-1;4,252102375E0;8,274360657E0
1,289300290E3;3,830722570E-1;2,106897593E0;6,837840080E0
1,290300290E3;1,915361404E0;3,639186621E0;1,304361057E1
1,291300290E3;8,427590132E-1;6,397306919E0;9,222464561E0
1,292300290E3;1,149216771E0;3,485957623E0;6,042964935E0
1,293300290E3;5,363011956E-1;1,340752959E0;6,521805286E0
1,294300290E3;2,068590164E0;2,719813108E0;1,448013210E1
1,295300290E3;6,895300746E-1;3,179499865E0;1,097502041E1
1,296300290E3;3,830722570E-1;2,413355350E0;5,726930618E0
1,297300290E3;2,528276920E0;8,810662031E-1;9,385271072E0
1,298300290E3;1,915361404E0;2,719813108E0;9,864110947E0
1,299300290E3;2,681505919E0;2,413355350E0;9,864110947E0
1,300300290E3;-2,298433632E-1;2,873042107E0;7,153874874E0
1,301300290E3;-5,363011956E-1;1,187524080E0;6,837840080E0
1,302300290E3;2,987963676E0;-6,512228847E-1;1,829170036E1
1,303300290E3;2,681505919E0;4,558559895E0;1,335964584E1
1,304300290E3;3,830722570E-1;2,873042107E0;7,632715225E0
1,305300290E3;3,830722570E-1;2,566584110E0;7,000645638E0
1,306300290E3;2,298433632E-1;3,179499865E0;1,097502041E1
1,307300290E3;1,915361404E0;3,179499865E0;1,160709000E1
1,308300290E3;1,302445769E0;4,405331135E0;8,427590370E0
1,309300290E3;1,302445769E0;3,639186621E0;4,453215122E0
1,310300290E3;5,363011956E-1;2,719813108E0;7,316680431E0
1,311300290E3;3,600879431E0;4,405331135E0;1,335964584E1
1,312300290E3;4,826710701E0;6,090848923E0;1,081221485E1
1,313300290E3;1,302445769E0;2,719813108E0;6,675034523E0
1,314300290E3;2,681505919E0;5,018246651E0;8,111555099E0
1,315300290E3;1,608903527E0;5,477933407E0;6,837840080E0
1,316300290E3;9,959878922E-1;2,566584110E0;9,701305389E0
1,317300290E3;2,987963676E0;-3,447650373E-1;1,829170036E1
1,318300290E3;1,302445769E0;5,324704647E0;1,034295177E1
1,319300290E3;3,830722570E-1;3,945644379E0;7,153874874E0
1,320300290E3;3,830722570E-1;1,647210717E0;5,085284233E0
1,321300290E3;1,455674648E0;3,945644379E0;8,906430244E0
1,322300290E3;2,221819162E0;5,784391403E0;9,538499832E0
1,323300290E3;1,302445769E0;6,550535679E0;9,069235802E0
1,324300290E3;1,608903527E0;2,873042107E0;5,564124584E0
1,325300290E3;1,149216771E0;2,719813108E0;4,769249916E0
1,326300290E3;8,427590132E-1;2,413355350E0;6,837840080E0
1,327300290E3;5,363011956E-1;2,566584110E0;6,205770969E0
1,328300290E3;4,060565948E0;2,873042107E0;1,400129128E1
1,329300290E3;-2,298433632E-1;5,171475887E0;1,304361057E1
1,330300290E3;7,661445439E-2;5,477933407E0;1,049618053E1
1,331300290E3;7,661445439E-2;4,098873138E0;4,137180328E0
1,332300290E3;1,455674648E0;2,719813108E0;6,521805286E0
1,333300290E3;2,834734917E0;2,873042107E0;1,304361057E1
1,334300290E3;2,221819162E0;4,865017891E0;9,385271072E0
1,335300290E3;3,907337189E0;3,945644379E0;9,538499832E0
1,336300290E3;3,830722570E-1;3,332728863E0;5,880159378E0
1,337300290E3;1,455674648E0;1,953668594E0;4,769249916E0
1,338300290E3;3,830722570E-1;2,566584110E0;9,222464561E0
1,339300290E3;5,363011956E-1;5,018246651E0;1,304361057E1
1,340300290E3;2,298433632E-1;4,865017891E0;6,837840080E0
1,341300290E3;3,830722570E-1;2,260126352E0;4,453215122E0
1,342300290E3;1,762132406E0;2,260126352E0;6,042964935E0
1,343300290E3;2,987963676E0;2,413355350E0;1,145386124E1
1,344300290E3;3,600879431E0;3,945644379E0;1,272757626E1
1,345300290E3;9,959878922E-1;4,865017891E0;5,564124584E0
1,346300290E3;-8,427590132E-1;2,566584110E0;4,932055473E0
1,347300290E3;2,375048161E0;5,746083856E-1;1,574427032E1
1,348300290E3;5,363011956E-1;9,308655739E0;8,274360657E0
1,349300290E3;3,830722570E-1;4,865017891E0;7,316680431E0
1,350300290E3;1,608903527E0;1,800439715E0;3,811569214E0
1,351300290E3;2,834734917E0;4,213795066E-1;1,765963173E1
1,352300290E3;3,600879431E0;4,252102375E0;9,701305389E0
1,353300290E3;1,149216771E0;2,413355350E0;6,358999729E0
1,354300290E3;6,895300746E-1;1,800439715E0;5,564124584E0
1,355300290E3;1,302445769E0;8,810662031E-1;8,906430244E0
1,356300290E3;2,221819162E0;4,711789131E0;1,352245140E1
1,357300290E3;1,762132406E0;4,558559895E0;1,145386124E1
1,358300290E3;2,298433632E-1;3,485957623E0;4,453215122E0
1,359300290E3;1,455674648E0;1,953668594E0;7,316680431E0
1,360300290E3;2,375048161E0;2,413355350E0;9,222464561E0
1,361300290E3;1,302445769E0;1,953668594E0;1,001733971E1
1,362300290E3;3,294421434E0;2,260126352E0;9,222464561E0
1,363300290E3;2,681505919E0;1,800439715E0;6,042964935E0
1,364300290E3;1,149216771E0;1,187524080E0;7,469909191E0
1,365300290E3;6,895300746E-1;3,179499865E0;1,208592987E1
1,366300290E3;1,302445769E0;2,719813108E0;7,000645638E0
1,367300290E3;9,959878922E-1;3,179499865E0;1,256477070E1
1,368300290E3;3,294421434E0;3,179499865E0;7,948749542E0
1,369300290E3;1,915361404E0;3,945644379E0;6,675034523E0
1,370300290E3;8,427590132E-1;3,792415380E0;4,769249916E0
1,371300290E3;-3,830722570E-1;5,324704647E0;5,401319027E0
1,372300290E3;5,363011956E-1;5,477933407E0;1,001733971E1
1,373300290E3;-5,363011956E-1;3,639186621E0;1,001733971E1
1,374300290E3;7,661445439E-2;2,413355350E0;4,606443882E0
1,375300290E3;-6,895300746E-1;1,647210717E0;6,675034523E0
1,376300290E3;2,834734917E0;-7,852981567E0;8,743624687E0
1,377300290E3;1,172201157E1;-6,627150536E0;4,932055473E0
1,378300290E3;5,439626217E0;-1,723825216E0;2,537853718E0
1,379300290E3;9,730035782E0;-2,949656487E0;2,221819162E0
1,380300290E3;1,126232433E1;-6,014234543E0;3,495534420E0
1,381300290E3;1,264138508E1;-1,110909581E0;3,811569214E0
1,382300290E3;8,504204750E0;-4,481945515E0;4,606443882E0
1,383300290E3;5,899312973E0;-2,949656487E0;3,179499865E0
1,384300290E3;1,034295177E1;-6,473921299E0;8,111555099E0
1,385300290E3;-7,661445439E-2;2,681505978E-1;1,065898609E1
1,386300290E3;-3,600879431E0;-9,576807022E-1;1,018014526E1
1,387300290E3;-1,915361404E0;2,681505978E-1;9,385271072E0
1,388300290E3;-1,915361404E0;4,213795066E-1;9,385271072E0
1,389300290E3;-2,068590164E0;7,278373241E-1;9,385271072E0
1,390300290E3;-3,600879431E0;-3,447650373E-1;1,081221485E1
1,391300290E3;6,665457726E0;-2,183511972E0;6,675034523E0
1,392300290E3;4,520252705E0;-2,796427488E0;8,111555099E0
1,393300290E3;9,959878922E-1;4,558559895E0;7,795520782E0
1,394300290E3;4,826710701E0;2,566584110E0;1,097502041E1
1,395300290E3;2,375048161E0;4,405331135E0;5,880159378E0
1,396300290E3;1,915361404E0;3,332728863E0;3,658340216E0
1,397300290E3;1,762132406E0;3,332728863E0;7,469909191E0
1,398300290E3;2,068590164E0;3,179499865E0;8,906430244E0
1,399300290E3;2,375048161E0;3,792415380E0;1,097502041E1
1,400300290E3;2,375048161E0;3,179499865E0;9,701305389E0
1,401300290E3;2,834734917E0;2,413355350E0;3,658340216E0
1,402300290E3;2,681505919E0;3,485957623E0;8,743624687E0
1,403300290E3;2,681505919E0;2,260126352E0;4,769249916E0
1,404300290E3;5,363011956E-1;2,413355350E0;5,564124584E0
1,405300290E3;6,052541733E0;1,953668594E0;1,193270111E1
1,406300290E3;4,060565948E0;1,647210717E0;1,176989555E1
1,407300290E3;4,367023945E0;3,179499865E0;1,352245140E1
1,408300290E3;3,447650433E0;5,631162167E0;1,097502041E1
1,409300290E3;3,600879431E0;4,405331135E0;1,065898609E1
1,410300290E3;2,528276920E0;3,792415380E0;1,193270111E1
1,411300290E3;2,528276920E0;3,332728863E0;9,701305389E0
1,412300290E3;3,907337189E0;4,865017891E0;1,065898609E1
1,413300290E3;2,068590164E0;4,252102375E0;6,837840080E0
1,414300290E3;2,528276920E0;2,566584110E0;7,632715225E0
1,415300290E3;3,754108191E0;2,106897593E0;8,427590370E0
1,416300290E3;2,681505919E0;3,026270866E0;9,701305389E0
1,417300290E3;3,447650433E0;1,034295082E0;9,385271072E0
1,418300290E3;1,302445769E0;1,187524080E0;8,427590370E0
1,419300290E3;5,363011956E-1;2,873042107E0;1,208592987E1
1,420300290E3;1,455674648E0;6,856993675E0;7,795520782E0
1,421300290E3;8,427590132E-1;1,800439715E0;8,743624687E0
1,422300290E3;1,302445769E0;-4,979939461E-1;7,948749542E0
1,423300290E3;3,907337189E0;-3,447650373E-1;1,113782597E1
1,424300290E3;3,600879431E0;-3,830722719E-2;9,385271072E0
1,425300290E3;2,068590164E0;-1,915361285E-1;7,795520782E0
1,426300290E3;-3,830722570E-1;2,106897593E0;1,160709000E1
1,427300290E3;7,661445439E-2;4,213795066E-1;1,018014526E1
1,428300290E3;-3,830722570E-1;7,278373241E-1;8,906430244E0
1,429300290E3;-6,895300746E-1;2,106897593E0;8,743624687E0
1,430300290E3;-2,221819162E0;5,746083856E-1;8,590395927E0
1,431300290E3;-1,455674648E0;-9,576807022E-1;9,538499832E0
1,432300290E3;-1,915361404E0;1,340752959E0;9,864110947E0
1,433300290E3;-1,762132406E0;2,106897593E0;9,222464561E0
1,434300290E3;-2,068590164E0;2,260126352E0;9,069235802E0
1,435300290E3;-1,915361404E0;1,647210717E0;9,222464561E0
1,436300290E3;-2,528276920E0;1,647210717E0;9,222464561E0
1,437300290E3;-3,830722570E-1;1,647210717E0;9,385271072E0
1,438300290E3;-7,661445439E-2;1,647210717E0;9,538499832E0
1,439300290E3;-1,302445769E0;1,953668594E0;9,385271072E0
1,440300290E3;-5,363011956E-1;1,647210717E0;9,385271072E0
1,441300290E3;-2,298433632E-1;8,810662031E-1;9,538499832E0
1,442300290E3;-7,661445439E-2;1,187524080E0;1,001733971E1
1,443300290E3;-9,959878922E-1;-4,979939461E-1;1,320641613E1
1,444300290E3;-3,830722570E-1;5,746083856E-1;9,538499832E0
1,445300290E3;-2,068590164E0;4,213795066E-1;9,222464561E0
1,446300290E3;-5,363011956E-1;5,746083856E-1;9,538499832E0
1,447300290E3;-8,427590132E-1;8,810662031E-1;9,069235802E0
1,448300290E3;-6,895300746E-1;7,278373241E-1;9,538499832E0
1,449300290E3;-3,830722570E-1;1,034295082E0;9,538499832E0
1,450300290E3;7,661445439E-2;1,493981838E0;8,274360657E0
1,451300290E3;6,895300746E-1;1,187524080E0;9,385271072E0
1,452300290E3;9,959878922E-1;5,746083856E-1;9,701305389E0
1,453300290E3;1,149216771E0;4,213795066E-1;9,701305389E0
1,454300290E3;9,959878922E-1;5,746083856E-1;9,538499832E0
1,455300290E3;9,959878922E-1;7,278373241E-1;9,701305389E0
1,456300290E3;1,149216771E0;5,746083856E-1;9,538499832E0
1,457300290E3;9,959878922E-1;7,278373241E-1;9,538499832E0
1,458300290E3;1,302445769E0;7,278373241E-1;9,538499832E0
1,459300290E3;1,302445769E0;8,810662031E-1;9,538499832E0
1,460300290E3;1,302445769E0;8,810662031E-1;9,538499832E0
1,461300290E3;9,959878922E-1;2,106897593E0;9,222464561E0
1,462300290E3;8,427590132E-1;1,647210717E0;9,385271072E0
1,463300290E3;9,959878922E-1;1,340752959E0;9,701305389E0
1,464300290E3;5,363011956E-1;2,106897593E0;9,538499832E0
1,465300290E3;-2,298433632E-1;3,179499865E0;9,538499832E0
1,466300290E3;2,298433632E-1;2,413355350E0;9,222464561E0
1,467300290E3;6,895300746E-1;2,413355350E0;9,222464561E0
1,468300290E3;6,895300746E-1;2,413355350E0;9,222464561E0
1,469300290E3;8,427590132E-1;2,413355350E0;9,222464561E0
1,470300290E3;8,427590132E-1;2,413355350E0;9,222464561E0
1,471300290E3;5,363011956E-1;2,413355350E0;9,222464561E0
1,472300290E3;5,363011956E-1;2,413355350E0;9,222464561E0
1,473300290E3;7,661445439E-2;2,413355350E0;9,222464561E0
1,474300290E3;5,363011956E-1;2,260126352E0;9,222464561E0
1,475300290E3;6,895300746E-1;1,647210717E0;9,701305389E0
1,476300290E3;6,895300746E-1;1,953668594E0;9,222464561E0
1,477300290E3;9,959878922E-1;1,493981838E0;9,701305389E0
1,478300290E3;5,363011956E-1;1,800439715E0;9,385271072E0
1,479300290E3;8,427590132E-1;2,413355350E0;9,222464561E0
1,480300290E3;7,661445439E-2;3,639186621E0;9,222464561E0
1,481300290E3;2,298433632E-1;1,647210717E0;9,385271072E0
1,482300290E3;8,427590132E-1;-1,877054095E0;1,241154194E1
1,483300290E3;7,661445439E-2;2,719813108E0;9,864110947E0
1,484300290E3;3,830722570E-1;1,034295082E0;7,153874874E0
1,485300290E3;1,149216771E0;-6,512228847E-1;9,538499832E0
1,486300290E3;2,068590164E0;1,149216816E-1;1,097502041E1
1,487300290E3;2,068590164E0;-3,830722719E-2;9,538499832E0
1,488300290E3;2,375048161E0;-1,417367458E0;9,222464561E0
1,489300290E3;2,528276920E0;-3,830722719E-2;7,153874874E0
1,490300290E3;2,834734917E0;1,800439715E0;1,034295177E1
1,491300290E3;2,068590164E0;1,647210717E0;8,427590370E0
1,492300290E3;3,447650433E0;5,746083856E-1;9,538499832E0
1,493300290E3;3,294421434E0;1,034295082E0;9,222464561E0
1,494300290E3;2,987963676E0;1,149216816E-1;9,538499832E0
1,495300290E3;4,213795185E0;-2,336740971E0;1,113782597E1
1,496300290E3;-1,149216771E0;1,493981838E0;1,367568016E1
1,497300290E3;2,298433632E-1;2,681505978E-1;9,701305389E0
1,498300290E3;7,661445439E-2;2,681505978E-1;9,538499832E0
1,499300290E3;-2,298433632E-1;4,213795066E-1;9,701305389E0
1,500300290E3;7,661445439E-2;4,213795066E-1;9,701305389E0
1,501300290E3;2,298433632E-1;2,681505978E-1;9,538499832E0
1,502300290E3;7,661445439E-2;2,681505978E-1;9,701305389E0
1,503300290E3;2,298433632E-1;1,149216816E-1;9,538499832E0
1,504300290E3;2,298433632E-1;2,681505978E-1;9,538499832E0
1,505300290E3;2,298433632E-1;2,681505978E-1;9,385271072E0
1,506300290E3;7,661445439E-2;4,213795066E-1;9,701305389E0
1,507300290E3;7,661445439E-2;2,681505978E-1;9,385271072E0
1,508300290E3;7,661445439E-2;4,213795066E-1;9,538499832E0
1,509300290E3;7,661445439E-2;2,681505978E-1;9,538499832E0
1,510300290E3;7,661445439E-2;4,213795066E-1;9,538499832E0
1,511300290E3;2,298433632E-1;2,681505978E-1;9,538499832E0
1,512300290E3;7,661445439E-2;2,681505978E-1;9,538499832E0
1,513300290E3;2,298433632E-1;4,213795066E-1;9,701305389E0
1,514300290E3;7,661445439E-2;4,213795066E-1;9,538499832E0
1,515300290E3;9,959878922E-1;5,746083856E-1;9,701305389E0
1,516300290E3;7,661445439E-2;2,681505978E-1;9,701305389E0
1,517300290E3;7,661445439E-2;2,681505978E-1;9,538499832E0
1,518300290E3;3,830722570E-1;2,681505978E-1;9,701305389E0
1,519300290E3;2,298433632E-1;2,681505978E-1;9,701305389E0
1,520300290E3;2,298433632E-1;2,681505978E-1;9,538499832E0
1,521300290E3;2,298433632E-1;4,213795066E-1;9,538499832E0
1,522300290E3;2,298433632E-1;2,681505978E-1;9,538499832E0
1,523300290E3;2,298433632E-1;4,213795066E-1;9,538499832E0
1,524300290E3;7,661445439E-2;2,681505978E-1;9,701305389E0
1,525300290E3;2,298433632E-1;2,681505978E-1;9,538499832E0
1,526300290E3;7,661445439E-2;4,213795066E-1;9,538499832E0
1,527300290E3;2,298433632E-1;4,213795066E-1;9,538499832E0
1,528300290E3;2,298433632E-1;7,278373241E-1;9,701305389E0
1,529300290E3;3,830722570E-1;2,681505978E-1;9,701305389E0
1,530300290E3;2,298433632E-1;4,213795066E-1;9,538499832E0
1,531300290E3;7,661445439E-2;2,681505978E-1;9,701305389E0
1,532300290E3;2,298433632E-1;2,681505978E-1;9,701305389E0
1,533300290E3;2,298433632E-1;2,681505978E-1;9,538499832E0
1,534300290E3;2,298433632E-1;2,681505978E-1;9,701305389E0
1,535300290E3;2,298433632E-1;2,681505978E-1;9,538499832E0
1,536300290E3;2,298433632E-1;4,213795066E-1;9,701305389E0
1,537300290E3;2,298433632E-1;4,213795066E-1;9,538499832E0
1,538300290E3;2,298433632E-1;2,681505978E-1;9,538499832E0
1,539300290E3;7,661445439E-2;4,213795066E-1;9,538499832E0
1,540300290E3;2,298433632E-1;4,213795066E-1;9,385271072E0
1,541300290E3;2,298433632E-1;2,681505978E-1;9,538499832E0
1,542300290E3;2,298433632E-1;2,681505978E-1;9,538499832E0
1,543300290E3;2,298433632E-1;2,681505978E-1;9,701305389E0
1,544300290E3;2,298433632E-1;2,681505978E-1;9,538499832E0
1,545300290E3;2,298433632E-1;2,681505978E-1;9,538499832E0
1,546300290E3;2,298433632E-1;4,213795066E-1;9,701305389E0
1,547300290E3;2,298433632E-1;4,213795066E-1;9,538499832E0
1,548300290E3;2,298433632E-1;4,213795066E-1;9,701305389E0
1,549300290E3;2,298433632E-1;2,681505978E-1;9,538499832E0
1,550300290E3;2,298433632E-1;2,681505978E-1;9,538499832E0
1,551300290E3;7,661445439E-2;2,681505978E-1;9,538499832E0
1,552300290E3;2,298433632E-1;2,681505978E-1;9,701305389E0
1,553300290E3;2,298433632E-1;2,681505978E-1;9,538499832E0
1,554300290E3;2,298433632E-1;4,213795066E-1;9,701305389E0
1,555300290E3;7,661445439E-2;2,681505978E-1;9,538499832E0
1,556300290E3;2,298433632E-1;2,681505978E-1;9,385271072E0
1,557300290E3;2,298433632E-1;2,681505978E-1;9,538499832E0
1,558300290E3;3,830722570E-1;2,681505978E-1;9,701305389E0
1,559300290E3;2,298433632E-1;2,681505978E-1;9,538499832E0
1,560300290E3;2,298433632E-1;2,681505978E-1;9,538499832E0
1,561300290E3;2,298433632E-1;4,213795066E-1;9,701305389E0
1,562300290E3;2,298433632E-1;2,681505978E-1;9,538499832E0
1,563300290E3;2,298433632E-1;2,681505978E-1;9,701305389E0
1,564300290E3;2,298433632E-1;2,681505978E-1;9,538499832E0
1,565300290E3;2,298433632E-1;2,681505978E-1;9,538499832E0
1,566300290E3;7,661445439E-2;4,213795066E-1;9,538499832E0
1,567300290E3;2,298433632E-1;2,681505978E-1;9,701305389E0
1,568300290E3;2,298433632E-1;2,681505978E-1;9,538499832E0
1,569300290E3;7,661445439E-2;2,681505978E-1;9,538499832E0
1,570300290E3;3,830722570E-1;2,681505978E-1;9,538499832E0
1,571300290E3;7,661445439E-2;2,681505978E-1;9,701305389E0
1,572300290E3;2,298433632E-1;4,213795066E-1;9,538499832E0
1,573300290E3;2,298433632E-1;2,681505978E-1;9,538499832E0
1,574300290E3;2,298433632E-1;4,213795066E-1;9,701305389E0
1,575300290E3;2,298433632E-1;5,746083856E-1;9,538499832E0
1,576300290E3;2,298433632E-1;4,213795066E-1;9,538499832E0
1,577300290E3;2,298433632E-1;4,213795066E-1;9,538499832E0
1,578300290E3;2,298433632E-1;4,213795066E-1;9,538499832E0
1,579300290E3;2,298433632E-1;4,213795066E-1;9,538499832E0
1,580300290E3;7,661445439E-2;4,213795066E-1;9,538499832E0
1,581300290E3;7,661445439E-2;5,746083856E-1;9,538499832E0
1,582300290E3;2,298433632E-1;4,213795066E-1;9,538499832E0
1,583300290E3;2,298433632E-1;4,213795066E-1;9,701305389E0
1,584300290E3;2,298433632E-1;4,213795066E-1;9,538499832E0
1,585300290E3;3,830722570E-1;5,746083856E-1;9,701305389E0
1,586300290E3;2,298433632E-1;2,681505978E-1;9,538499832E0
1,587300290E3;2,298433632E-1;4,213795066E-1;9,701305389E0
1,588300290E3;7,661445439E-2;4,213795066E-1;9,701305389E0
1,589300290E3;2,298433632E-1;5,746083856E-1;9,701305389E0
1,590300290E3;2,298433632E-1;4,213795066E-1;9,538499832E0
1,591300290E3;2,298433632E-1;4,213795066E-1;9,538499832E0
1,592300290E3;2,298433632E-1;4,213795066E-1;9,538499832E0
1,593300290E3;2,298433632E-1;2,681505978E-1;9,538499832E0
1,594300290E3;7,661445439E-2;1,149216816E-1;9,701305389E0
1,595300290E3;2,298433632E-1;2,681505978E-1;9,701305389E0
1,596300290E3;2,298433632E-1;2,681505978E-1;9,538499832E0
1,597300290E3;2,298433632E-1;2,681505978E-1;9,538499832E0
1,598300290E3;2,298433632E-1;2,681505978E-1;9,538499832E0
1,599300290E3;3,830722570E-1;4,213795066E-1;9,701305389E0
1,600300290E3;2,298433632E-1;2,681505978E-1;9,538499832E0
1,601300290E3;2,298433632E-1;2,681505978E-1;9,701305389E0
1,602300290E3;2,298433632E-1;2,681505978E-1;9,538499832E0
1,603300290E3;7,661445439E-2;2,681505978E-1;9,538499832E0
1,604300290E3;3,830722570E-1;2,681505978E-1;9,701305389E0
1,605300290E3;2,298433632E-1;2,681505978E-1;9,538499832E0
1,606300290E3;3,830722570E-1;4,213795066E-1;9,701305389E0
1,607300290E3;3,830722570E-1;2,681505978E-1;9,701305389E0
1,608300290E3;2,298433632E-1;1,149216816E-1;9,538499832E0
1,609300290E3;3,830722570E-1;2,681505978E-1;9,538499832E0
1,610300290E3;3,830722570E-1;1,149216816E-1;9,538499832E0
1,611300290E3;3,830722570E-1;2,681505978E-1;9,538499832E0
1,612300290E3;3,830722570E-1;2,681505978E-1;9,701305389E0
1,613300290E3;2,298433632E-1;2,681505978E-1;9,538499832E0
1,614300290E3;3,830722570E-1;2,681505978E-1;9,538499832E0
1,615300290E3;3,830722570E-1;2,681505978E-1;9,701305389E0
1,616300290E3;2,298433632E-1;2,681505978E-1;9,701305389E0
1,617300290E3;2,298433632E-1;2,681505978E-1;9,538499832E0
1,618300290E3;2,298433632E-1;4,213795066E-1;9,701305389E0
1,619300290E3;2,298433632E-1;2,681505978E-1;9,701305389E0
1,620300290E3;3,830722570E-1;2,681505978E-1;9,538499832E0
1,621300290E3;3,830722570E-1;2,681505978E-1;9,538499832E0
1,622300290E3;3,830722570E-1;2,681505978E-1;9,701305389E0
1,623300290E3;3,830722570E-1;2,681505978E-1;9,538499832E0
1,624300290E3;2,298433632E-1;2,681505978E-1;9,538499832E0
1,625300290E3;2,298433632E-1;2,681505978E-1;9,538499832E0
1,626300290E3;3,830722570E-1;2,681505978E-1;9,538499832E0
1,627300290E3;3,830722570E-1;2,681505978E-1;9,538499832E0
1,628300290E3;2,298433632E-1;2,681505978E-1;9,538499832E0
1,629300290E3;2,298433632E-1;2,681505978E-1;9,538499832E0
1,630300290E3;3,830722570E-1;2,681505978E-1;9,701305389E0
1,631300290E3;3,830722570E-1;2,681505978E-1;9,538499832E0
1,632300290E3;3,830722570E-1;1,149216816E-1;9,701305389E0
1,633300290E3;2,298433632E-1;2,681505978E-1;9,538499832E0
1,634300290E3;2,298433632E-1;2,681505978E-1;9,701305389E0
1,635300290E3;3,830722570E-1;2,681505978E-1;9,701305389E0
1,636300290E3;3,830722570E-1;2,681505978E-1;9,538499832E0
1,637300290E3;2,298433632E-1;4,213795066E-1;9,701305389E0
1,638300290E3;3,830722570E-1;2,681505978E-1;9,701305389E0
1,639300290E3;2,298433632E-1;1,149216816E-1;9,538499832E0
1,640300290E3;3,830722570E-1;2,681505978E-1;9,538499832E0
1,641300290E3;2,298433632E-1;2,681505978E-1;9,538499832E0
1,642300290E3;3,830722570E-1;2,681505978E-1;9,538499832E0
1,643300290E3;3,830722570E-1;2,681505978E-1;9,701305389E0
1,644300290E3;3,830722570E-1;4,213795066E-1;9,701305389E0
1,645300290E3;3,830722570E-1;2,681505978E-1;9,538499832E0
1,646300290E3;2,298433632E-1;2,681505978E-1;9,701305389E0
1,647300290E3;3,830722570E-1;2,681505978E-1;9,701305389E0
1,648300290E3;2,298433632E-1;2,681505978E-1;9,538499832E0
1,649300290E3;3,830722570E-1;2,681505978E-1;9,701305389E0
1,650300290E3;2,298433632E-1;2,681505978E-1;9,538499832E0
1,651300290E3;3,830722570E-1;4,213795066E-1;9,538499832E0
1,652300290E3;3,830722570E-1;4,213795066E-1;9,538499832E0
1,653300290E3;3,830722570E-1;2,681505978E-1;9,701305389E0
1,654300290E3;3,830722570E-1;2,681505978E-1;9,701305389E0
1,655300290E3;3,830722570E-1;2,681505978E-1;9,538499832E0
1,656300290E3;3,830722570E-1;2,681505978E-1;9,538499832E0
1,657300290E3;2,298433632E-1;2,681505978E-1;9,538499832E0
1,658300290E3;3,830722570E-1;2,681505978E-1;9,538499832E0
1,659300290E3;3,830722570E-1;2,681505978E-1;9,701305389E0
1,660300290E3;2,298433632E-1;4,213795066E-1;9,701305389E0
1,661300290E3;3,830722570E-1;4,213795066E-1;9,701305389E0
1,662300290E3;3,830722570E-1;2,681505978E-1;9,538499832E0
1,663300290E3;3,830722570E-1;4,213795066E-1;9,538499832E0
1,664300290E3;3,830722570E-1;2,681505978E-1;9,538499832E0
1,665300290E3;2,298433632E-1;2,681505978E-1;9,538499832E0
1,666300290E3;3,830722570E-1;4,213795066E-1;9,538499832E0
1,667300290E3;3,830722570E-1;4,213795066E-1;9,538499832E0
1,668300290E3;3,830722570E-1;2,681505978E-1;9,538499832E0
1,669300290E3;3,830722570E-1;2,681505978E-1;9,701305389E0
1,670300290E3;3,830722570E-1;2,681505978E-1;9,538499832E0
1,671300290E3;3,830722570E-1;4,213795066E-1;9,538499832E0
1,672300290E3;2,298433632E-1;4,213795066E-1;9,538499832E0
1,673300290E3;2,298433632E-1;4,213795066E-1;9,538499832E0
1,674300290E3;3,830722570E-1;2,681505978E-1;9,701305389E0
1,675300290E3;3,830722570E-1;2,681505978E-1;9,538499832E0
1,676300290E3;3,830722570E-1;2,681505978E-1;9,701305389E0
1,677300290E3;3,830722570E-1;4,213795066E-1;9,538499832E0
1,678300290E3;3,830722570E-1;4,213795066E-1;9,538499832E0
1,679300290E3;3,830722570E-1;4,213795066E-1;9,538499832E0
1,680300290E3;2,298433632E-1;2,681505978E-1;9,538499832E0
1,681300290E3;3,830722570E-1;4,213795066E-1;9,538499832E0
1,682300290E3;3,830722570E-1;5,746083856E-1;9,538499832E0
1,683300290E3;3,830722570E-1;4,213795066E-1;9,538499832E0
1,684300290E3;3,830722570E-1;4,213795066E-1;9,538499832E0
1,685300290E3;2,298433632E-1;2,681505978E-1;9,538499832E0
1,686300290E3;2,298433632E-1;2,681505978E-1;9,538499832E0
1,687300290E3;2,298433632E-1;2,681505978E-1;9,538499832E0
1,688300290E3;3,830722570E-1;2,681505978E-1;9,538499832E0
1,689300290E3;3,830722570E-1;2,681505978E-1;9,538499832E0
1,690300290E3;3,830722570E-1;4,213795066E-1;9,538499832E0
1,691300290E3;3,830722570E-1;2,681505978E-1;9,538499832E0
1,692300290E3;3,830722570E-1;4,213795066E-1;9,538499832E0
1,693300290E3;2,298433632E-1;2,681505978E-1;9,701305389E0
1,694300290E3;3,830722570E-1;2,681505978E-1;9,538499832E0
1,695300290E3;3,830722570E-1;2,681505978E-1;9,701305389E0
1,696300290E3;2,298433632E-1;2,681505978E-1;9,538499832E0
1,697300290E3;3,830722570E-1;4,213795066E-1;9,538499832E0
1,698300290E3;3,830722570E-1;2,681505978E-1;9,538499832E0
1,699300290E3;3,830722570E-1;2,681505978E-1;9,538499832E0
1,700300290E3;3,830722570E-1;4,213795066E-1;9,538499832E0
1,701300290E3;3,830722570E-1;2,681505978E-1;9,701305389E0
1,702300290E3;3,830722570E-1;4,213795066E-1;9,538499832E0
1,703300290E3;2,298433632E-1;2,681505978E-1;9,538499832E0
1,704300290E3;3,830722570E-1;2,681505978E-1;9,538499832E0
1,705300290E3;2,298433632E-1;2,681505978E-1;9,701305389E0
1,706300290E3;3,830722570E-1;4,213795066E-1;9,538499832E0
1,707300290E3;3,830722570E-1;2,681505978E-1;9,538499832E0
1,708300290E3;3,830722570E-1;4,213795066E-1;9,701305389E0
1,709300290E3;3,830722570E-1;2,681505978E-1;9,538499832E0
1,710300290E3;3,830722570E-1;2,681505978E-1;9,538499832E0
1,711300290E3;3,830722570E-1;2,681505978E-1;9,538499832E0
1,712300290E3;2,298433632E-1;4,213795066E-1;9,538499832E0
1,713300290E3;2,298433632E-1;4,213795066E-1;9,538499832E0
1,714300290E3;3,830722570E-1;4,213795066E-1;9,538499832E0
1,715300290E3;2,298433632E-1;4,213795066E-1;9,538499832E0
1,716300290E3;5,363011956E-1;4,213795066E-1;9,701305389E0
1,717300290E3;2,298433632E-1;2,681505978E-1;9,538499832E0
1,718300290E3;2,298433632E-1;4,213795066E-1;9,538499832E0
1,719300290E3;3,830722570E-1;4,213795066E-1;9,538499832E0
1,720300290E3;3,830722570E-1;4,213795066E-1;9,538499832E0
1,721300290E3;2,298433632E-1;2,681505978E-1;9,538499832E0
1,722300290E3;2,298433632E-1;4,213795066E-1;9,538499832E0
1,723300290E3;3,830722570E-1;4,213795066E-1;9,701305389E0
1,724300290E3;3,830722570E-1;2,681505978E-1;9,538499832E0
1,725300290E3;2,298433632E-1;2,681505978E-1;9,538499832E0
1,726300290E3;2,298433632E-1;2,681505978E-1;9,538499832E0
1,727300290E3;3,830722570E-1;2,681505978E-1;9,538499832E0
1,728300290E3;2,298433632E-1;2,681505978E-1;9,538499832E0
1,729300290E3;5,363011956E-1;2,681505978E-1;9,538499832E0
1,730300290E3;3,830722570E-1;4,213795066E-1;9,538499832E0
1,731300290E3;2,298433632E-1;4,213795066E-1;9,538499832E0
1,732300290E3;3,830722570E-1;4,213795066E-1;9,538499832E0
1,733300290E3;3,830722570E-1;4,213795066E-1;9,538499832E0
1,734300290E3;2,298433632E-1;4,213795066E-1;9,538499832E0
1,735300290E3;3,830722570E-1;4,213795066E-1;9,538499832E0
1,736300290E3;3,830722570E-1;4,213795066E-1;9,701305389E0
1,737300290E3;2,298433632E-1;4,213795066E-1;9,538499832E0
1,738300290E3;3,830722570E-1;4,213795066E-1;9,701305389E0
1,739300290E3;7,661445439E-2;2,681505978E-1;9,701305389E0
1,740300290E3;3,830722570E-1;2,681505978E-1;9,701305389E0
1,741300290E3;3,830722570E-1;2,681505978E-1;9,701305389E0
1,742300290E3;3,830722570E-1;4,213795066E-1;9,538499832E0
1,743300290E3;3,830722570E-1;2,681505978E-1;9,701305389E0
1,744300290E3;3,830722570E-1;2,681505978E-1;9,538499832E0
1,745300290E3;2,298433632E-1;4,213795066E-1;9,538499832E0
1,746300290E3;3,830722570E-1;4,213795066E-1;9,538499832E0
1,747300290E3;3,830722570E-1;5,746083856E-1;9,538499832E0
1,748300290E3;3,830722570E-1;2,681505978E-1;9,538499832E0
1,749300290E3;2,298433632E-1;2,681505978E-1;9,538499832E0
1,750300290E3;3,830722570E-1;2,681505978E-1;9,538499832E0
1,751300290E3;2,298433632E-1;4,213795066E-1;9,538499832E0
1,752300290E3;3,830722570E-1;4,213795066E-1;9,538499832E0
1,753300290E3;3,830722570E-1;4,213795066E-1;9,538499832E0
1,754300290E3;3,830722570E-1;2,681505978E-1;9,538499832E0
1,755300290E3;3,830722570E-1;2,681505978E-1;9,701305389E0
1,756300290E3;2,298433632E-1;4,213795066E-1;9,701305389E0
1,757300290E3;2,298433632E-1;4,213795066E-1;9,538499832E0
1,758300290E3;3,830722570E-1;2,681505978E-1;9,701305389E0
1,759300290E3;3,830722570E-1;2,681505978E-1;9,538499832E0
1,760300290E3;3,830722570E-1;2,681505978E-1;9,538499832E0
1,761300290E3;3,830722570E-1;4,213795066E-1;9,538499832E0
1,762300290E3;3,830722570E-1;2,681505978E-1;9,701305389E0
1,763300290E3;2,298433632E-1;2,681505978E-1;9,538499832E0
1,764300290E3;3,830722570E-1;2,681505978E-1;9,538499832E0
1,765300290E3;3,830722570E-1;2,681505978E-1;9,701305389E0
1,766300290E3;3,830722570E-1;2,681505978E-1;9,538499832E0
1,767300290E3;3,830722570E-1;4,213795066E-1;9,538499832E0
1,768300290E3;3,830722570E-1;4,213795066E-1;9,701305389E0
1,769300290E3;2,298433632E-1;2,681505978E-1;9,538499832E0
1,770300290E3;2,298433632E-1;4,213795066E-1;9,538499832E0
1,771300290E3;2,298433632E-1;2,681505978E-1;9,701305389E0
1,772300290E3;3,830722570E-1;4,213795066E-1;9,538499832E0
1,773300290E3;3,830722570E-1;2,681505978E-1;9,538499832E0
1,774300290E3;3,830722570E-1;4,213795066E-1;9,701305389E0
1,775300290E3;3,830722570E-1;2,681505978E-1;9,701305389E0
1,776300290E3;3,830722570E-1;2,681505978E-1;9,538499832E0
1,777300290E3;3,830722570E-1;4,213795066E-1;9,538499832E0
1,778300290E3;3,830722570E-1;4,213795066E-1;9,538499832E0
1,779300290E3;3,830722570E-1;2,681505978E-1;9,701305389E0
1,780300290E3;2,298433632E-1;4,213795066E-1;9,701305389E0
1,781300290E3;2,298433632E-1;2,681505978E-1;9,538499832E0
1,782300290E3;2,298433632E-1;2,681505978E-1;9,538499832E0
1,783300290E3;2,298433632E-1;2,681505978E-1;9,538499832E0
1,784300290E3;3,830722570E-1;2,681505978E-1;9,538499832E0
1,785300290E3;3,830722570E-1;2,681505978E-1;9,538499832E0
1,786300290E3;3,830722570E-1;2,681505978E-1;9,538499832E0
1,787300290E3;3,830722570E-1;4,213795066E-1;9,701305389E0
1,788300290E3;2,298433632E-1;2,681505978E-1;9,538499832E0
1,789300290E3;3,830722570E-1;2,681505978E-1;9,538499832E0
1,790300290E3;3,830722570E-1;2,681505978E-1;9,538499832E0
1,791300290E3;2,298433632E-1;4,213795066E-1;9,538499832E0
1,792300290E3;2,298433632E-1;4,213795066E-1;9,538499832E0
1,793300290E3;3,830722570E-1;2,681505978E-1;9,701305389E0
1,794300290E3;2,298433632E-1;4,213795066E-1;9,538499832E0
1,795300290E3;3,830722570E-1;4,213795066E-1;9,538499832E0
1,796300290E3;3,830722570E-1;4,213795066E-1;9,538499832E0
1,797300290E3;3,830722570E-1;4,213795066E-1;9,538499832E0
1,798300290E3;3,830722570E-1;4,213795066E-1;9,538499832E0
1,799300290E3;3,830722570E-1;4,213795066E-1;9,701305389E0
1,800300290E3;2,298433632E-1;2,681505978E-1;9,701305389E0
1,801300290E3;3,830722570E-1;2,681505978E-1;9,538499832E0
1,802300290E3;3,830722570E-1;4,213795066E-1;9,538499832E0
1,803300290E3;3,830722570E-1;4,213795066E-1;9,538499832E0
1,804300290E3;3,830722570E-1;4,213795066E-1;9,701305389E0
1,805300290E3;2,298433632E-1;4,213795066E-1;9,538499832E0
1,806300290E3;3,830722570E-1;4,213795066E-1;9,701305389E0
1,807300290E3;3,830722570E-1;4,213795066E-1;9,538499832E0
1,808300290E3;3,830722570E-1;2,681505978E-1;9,538499832E0
1,809300290E3;3,830722570E-1;4,213795066E-1;9,701305389E0
1,810300290E3;3,830722570E-1;2,681505978E-1;9,538499832E0
1,811300290E3;3,830722570E-1;4,213795066E-1;9,538499832E0
1,812300290E3;3,830722570E-1;2,681505978E-1;9,701305389E0
1,813300290E3;3,830722570E-1;4,213795066E-1;9,538499832E0
1,814300290E3;3,830722570E-1;4,213795066E-1;9,538499832E0
1,815300290E3;3,830722570E-1;2,681505978E-1;9,538499832E0
1,816300290E3;3,830722570E-1;2,681505978E-1;9,701305389E0
1,817300290E3;3,830722570E-1;4,213795066E-1;9,538499832E0
1,818300290E3;3,830722570E-1;4,213795066E-1;9,701305389E0
1,819300290E3;2,298433632E-1;4,213795066E-1;9,538499832E0
1,820300290E3;3,830722570E-1;2,681505978E-1;9,538499832E0
1,821300290E3;3,830722570E-1;2,681505978E-1;9,538499832E0
1,822300290E3;3,830722570E-1;5,746083856E-1;9,701305389E0
1,823300290E3;3,830722570E-1;4,213795066E-1;9,701305389E0
1,824300290E3;2,298433632E-1;4,213795066E-1;9,538499832E0
1,825300290E3;3,830722570E-1;2,681505978E-1;9,538499832E0
1,826300290E3;7,661445439E-2;4,213795066E-1;9,538499832E0
1,827300290E3;3,830722570E-1;4,213795066E-1;9,701305389E0
1,828300290E3;3,830722570E-1;2,681505978E-1;9,701305389E0
1,829300290E3;3,830722570E-1;4,213795066E-1;9,538499832E0
1,830300290E3;5,363011956E-1;2,681505978E-1;9,538499832E0
1,831300290E3;3,830722570E-1;4,213795066E-1;9,538499832E0
1,832300290E3;3,830722570E-1;2,681505978E-1;9,701305389E0
1,833300290E3;3,830722570E-1;4,213795066E-1;9,701305389E0
1,834300290E3;3,830722570E-1;2,681505978E-1;9,538499832E0
1,835300290E3;3,830722570E-1;2,681505978E-1;9,538499832E0
1,836300290E3;3,830722570E-1;4,213795066E-1;9,538499832E0
1,837300290E3;2,298433632E-1;4,213795066E-1;9,538499832E0
1,838300290E3;2,298433632E-1;4,213795066E-1;9,538499832E0
1,839300290E3;3,830722570E-1;4,213795066E-1;9,701305389E0
1,840300290E3;2,298433632E-1;4,213795066E-1;9,701305389E0
1,841300290E3;3,830722570E-1;2,681505978E-1;9,701305389E0
1,842300290E3;3,830722570E-1;4,213795066E-1;9,538499832E0
1,843300290E3;3,830722570E-1;4,213795066E-1;9,538499832E0
1,844300290E3;3,830722570E-1;2,681505978E-1;9,538499832E0
1,845300290E3;3,830722570E-1;4,213795066E-1;9,385271072E0
1,846300290E3;3,830722570E-1;5,746083856E-1;9,538499832E0
1,847300290E3;2,298433632E-1;2,681505978E-1;9,538499832E0
1,848300290E3;2,298433632E-1;2,681505978E-1;9,538499832E0
1,849300290E3;3,830722570E-1;4,213795066E-1;9,701305389E0
1,850300290E3;2,298433632E-1;4,213795066E-1;9,538499832E0
1,851300290E3;3,830722570E-1;2,681505978E-1;9,538499832E0
1,852300290E3;3,830722570E-1;2,681505978E-1;9,538499832E0
1,853300290E3;2,298433632E-1;4,213795066E-1;9,538499832E0
1,854300290E3;3,830722570E-1;4,213795066E-1;9,538499832E0
1,855300290E3;3,830722570E-1;4,213795066E-1;9,538499832E0
1,856300290E3;3,830722570E-1;4,213795066E-1;9,538499832E0
1,857300290E3;2,298433632E-1;4,213795066E-1;9,538499832E0
1,858300290E3;3,830722570E-1;4,213795066E-1;9,538499832E0
1,859300290E3;3,830722570E-1;4,213795066E-1;9,538499832E0
1,860300290E3;2,298433632E-1;4,213795066E-1;9,538499832E0
1,861300290E3;3,830722570E-1;4,213795066E-1;9,538499832E0
1,862300290E3;3,830722570E-1;4,213795066E-1;9,701305389E0
1,863300290E3;2,298433632E-1;4,213795066E-1;9,538499832E0
1,864300290E3;3,830722570E-1;4,213795066E-1;9,538499832E0
1,865300290E3;2,298433632E-1;4,213795066E-1;9,538499832E0
1,866300290E3;3,830722570E-1;2,681505978E-1;9,701305389E0
1,867300290E3;3,830722570E-1;4,213795066E-1;9,701305389E0
1,868300290E3;3,830722570E-1;4,213795066E-1;9,538499832E0
1,869300290E3;3,830722570E-1;4,213795066E-1;9,538499832E0
1,870300290E3;3,830722570E-1;2,681505978E-1;9,538499832E0
1,871300290E3;3,830722570E-1;2,681505978E-1;9,538499832E0
1,872300290E3;3,830722570E-1;4,213795066E-1;9,538499832E0
1,873300290E3;3,830722570E-1;4,213795066E-1;9,701305389E0
1,874300290E3;2,298433632E-1;4,213795066E-1;9,538499832E0
1,875300290E3;2,298433632E-1;4,213795066E-1;9,538499832E0
1,876300290E3;3,830722570E-1;4,213795066E-1;9,538499832E0
1,877300290E3;3,830722570E-1;4,213795066E-1;9,538499832E0
1,878300290E3;3,830722570E-1;4,213795066E-1;9,701305389E0
1,879300290E3;3,830722570E-1;4,213795066E-1;9,538499832E0
1,880300290E3;2,298433632E-1;4,213795066E-1;9,538499832E0
1,881300290E3;3,830722570E-1;4,213795066E-1;9,538499832E0
1,882300290E3;3,830722570E-1;4,213795066E-1;9,701305389E0
1,883300290E3;2,298433632E-1;4,213795066E-1;9,701305389E0
1,884300290E3;3,830722570E-1;4,213795066E-1;9,701305389E0
1,885300290E3;3,830722570E-1;5,746083856E-1;9,538499832E0
1,886300290E3;2,298433632E-1;4,213795066E-1;9,538499832E0
1,887300290E3;3,830722570E-1;4,213795066E-1;9,701305389E0
1,888300290E3;3,830722570E-1;4,213795066E-1;9,538499832E0
1,889300290E3;2,298433632E-1;4,213795066E-1;9,701305389E0
1,890300290E3;2,298433632E-1;4,213795066E-1;9,538499832E0
1,891300290E3;2,298433632E-1;4,213795066E-1;9,538499832E0
1,892300290E3;2,298433632E-1;4,213795066E-1;9,538499832E0
1,893300290E3;3,830722570E-1;4,213795066E-1;9,538499832E0
1,894300290E3;3,830722570E-1;2,681505978E-1;9,538499832E0
1,895300290E3;2,298433632E-1;4,213795066E-1;9,538499832E0
1,896300290E3;3,830722570E-1;4,213795066E-1;9,538499832E0
1,897300290E3;3,830722570E-1;2,681505978E-1;9,538499832E0
1,898300290E3;3,830722570E-1;4,213795066E-1;9,701305389E0
1,899300290E3;2,298433632E-1;2,681505978E-1;9,538499832E0
1,900300290E3;3,830722570E-1;4,213795066E-1;9,538499832E0
1,901300290E3;3,830722570E-1;2,681505978E-1;9,701305389E0
1,903294873E3;-1,149216771E0;3,485957623E0;5,880159378E0
1,904294873E3;2,298433632E-1;-2,183511972E0;9,385271072E0
1,905294873E3;1,608903527E0;-9,576807022E-1;9,385271072E0
1,906294873E3;3,294421434E0;-1,915361285E-1;9,701305389E0
1,907294873E3;2,375048161E0;1,953668594E0;9,222464561E0
1,908294873E3;2,528276920E0;5,171475887E0;7,795520782E0
1,909294873E3;2,528276920E0;6,550535679E0;7,469909191E0
1,910294873E3;2,681505919E0;1,953668594E0;1,288080502E1
1,911294873E3;6,895300746E-1;3,945644379E0;8,906430244E0
1,912294873E3;7,661445439E-2;1,800439715E0;9,701305389E0
1,913294873E3;9,959878922E-1;3,792415380E0;7,316680431E0
1,914294873E3;6,895300746E-1;6,090848923E0;7,153874874E0
1,915294873E3;-9,959878922E-1;5,784391403E0;7,316680431E0
1,916294873E3;-1,915361404E0;5,018246651E0;7,795520782E0
1,917294873E3;-3,141192675E0;6,090848923E0;6,675034523E0
1,918294873E3;-3,830722570E-1;4,405331135E0;8,274360657E0
1,919294873E3;-2,528276920E0;1,647210717E0;9,222464561E0
1,920294873E3;1,455674648E0;3,179499865E0;7,000645638E0
1,921294873E3;2,221819162E0;1,340752959E0;7,316680431E0
1,922294873E3;8,427590132E-1;1,800439715E0;8,590395927E0
1,923294873E3;1,302445769E0;1,953668594E0;1,176989555E1
1,924294873E3;-2,375048161E0;4,098873138E0;1,145386124E1
1,925294873E3;-2,221819162E0;3,332728863E0;1,145386124E1
1,926294873E3;-2,221819162E0;3,179499865E0;8,906430244E0
1,927294873E3;-1,455674648E0;3,945644379E0;7,469909191E0
1,928294873E3;7,661445439E-2;4,405331135E0;5,726930618E0
1,929294873E3;9,959878922E-1;2,106897593E0;8,427590370E0
1,930294873E3;5,363011956E-1;3,179499865E0;1,001733971E1
1,931294873E3;-6,895300746E-1;2,566584110E0;1,018014526E1
1,932294873E3;5,363011956E-1;2,719813108E0;1,001733971E1
1,933294873E3;-3,830722570E-1;2,719813108E0;8,427590370E0
1,934294873E3;-2,068590164E0;7,316680431E0;7,000645638E0
1,935294873E3;3,830722570E-1;3,026270866E0;8,906430244E0
1,936294873E3;6,895300746E-1;3,179499865E0;9,222464561E0
1,937294873E3;9,959878922E-1;2,566584110E0;7,316680431E0
1,938294873E3;1,149216771E0;-3,830722719E-2;1,367568016E1
1,939294873E3;-2,068590164E0;2,681505978E-1;1,018014526E1
1,940294873E3;-1,302445769E0;1,187524080E0;1,018014526E1
1,941294873E3;6,895300746E-1;1,034295082E0;8,590395927E0
1,942294873E3;-8,427590132E-1;3,179499865E0;9,222464561E0
1,943294873E3;1,149216771E0;5,784391403E0;9,222464561E0
1,944294873E3;2,834734917E0;1,647210717E0;1,001733971E1
1,945294873E3;1,762132406E0;-1,264138460E0;1,034295177E1
1,946294873E3;1,455674648E0;7,278373241E-1;9,069235802E0
1,947294873E3;3,830722570E-1;3,332728863E0;6,837840080E0
1,948294873E3;2,298433632E-1;5,937620163E0;1,113782597E1
1,949294873E3;4,060565948E0;3,485957623E0;9,864110947E0
1,950294873E3;2,528276920E0;1,187524080E0;9,538499832E0
1,951294873E3;1,915361404E0;1,493981838E0;6,521805286E0
1,952294873E3;6,895300746E-1;7,278373241E-1;5,726930618E0
1,953294873E3;-5,363011956E-1;1,149216816E-1;7,948749542E0
1,954294873E3;-2,298433632E-1;-1,723825216E0;1,208592987E1
1,955294873E3;-2,528276920E0;1,800439715E0;1,081221485E1
1,956294873E3;-1,149216771E0;1,340752959E0;9,538499832E0
1,957294873E3;8,427590132E-1;2,106897593E0;7,153874874E0
1,958294873E3;-5,363011956E-1;1,149216816E-1;9,864110947E0
1,959294873E3;-7,661445439E-2;4,213795066E-1;1,049618053E1
1,960294873E3;2,298433632E-1;8,810662031E-1;1,049618053E1
1,961294873E3;-3,830722570E-1;1,034295082E0;8,906430244E0
1,962294873E3;-5,363011956E-1;4,213795066E-1;5,564124584E0
1,963294873E3;-1,302445769E0;1,149216816E-1;8,427590370E0
1,964294873E3;-6,895300746E-1;8,810662031E-1;1,352245140E1
1,965294873E3;-1,915361404E0;1,800439715E0;1,001733971E1
1,966294873E3;-7,661445439E-2;1,493981838E0;7,795520782E0
1,967294873E3;-2,298433632E-1;2,413355350E0;1,018014526E1
1,968294873E3;2,528276920E0;2,719813108E0;1,001733971E1
1,969294873E3;9,959878922E-1;1,034295082E0;7,632715225E0
1,970294873E3;-7,661445439E-2;-6,512228847E-1;7,153874874E0
1,971294873E3;-1,762132406E0;-3,102885485E0;1,113782597E1
1,972294873E3;-8,427590132E-1;-6,512228847E-1;1,241154194E1
1,973294873E3;7,661445439E-2;1,034295082E0;7,153874874E0
1,974294873E3;-2,298433632E-1;2,681505978E-1;9,069235802E0
1,975294873E3;1,302445769E0;-1,264138460E0;1,081221485E1
1,976294873E3;-7,661445439E-2;-3,830722719E-2;7,795520782E0
1,977294873E3;-1,455674648E0;-6,512228847E-1;8,111555099E0
1,978294873E3;-1,762132406E0;-1,915361285E-1;1,049618053E1
1,979294873E3;-1,608903527E0;2,681505978E-1;9,864110947E0
1,980294873E3;-2,681505919E0;-1,570596337E0;9,701305389E0
1,981294873E3;-6,895300746E-1;-8,044517636E-1;1,018014526E1
1,982294873E3;-3,830722570E-1;-1,110909581E0;7,153874874E0
1,983294873E3;1,455674648E0;-3,102885485E0;1,113782597E1
1,984294873E3;-7,661445439E-2;-4,979939461E-1;9,385271072E0
1,985294873E3;-2,221819162E0;2,681505978E-1;9,701305389E0
1,986294873E3;-2,834734917E0;7,278373241E-1;8,427590370E0
1,987294873E3;-3,754108191E0;-1,264138460E0;8,274360657E0
1,988294873E3;-2,298433632E-1;1,493981838E0;1,049618053E1
1,989294873E3;6,895300746E-1;4,098873138E0;7,153874874E0
1,990294873E3;-7,661445439E-2;4,213795066E-1;1,018014526E1
1,991294873E3;1,455674648E0;2,681505978E-1;1,065898609E1
1,992294873E3;-5,363011956E-1;-3,830722719E-2;8,590395927E0
1,993294873E3;-1,149216771E0;7,278373241E-1;1,097502041E1
1,994294873E3;-1,302445769E0;-3,830722719E-2;9,538499832E0
1,995294873E3;-6,895300746E-1;5,746083856E-1;9,701305389E0
1,996294873E3;-5,363011956E-1;-6,512228847E-1;1,160709000E1
1,997294873E3;2,528276920E0;7,278373241E-1;7,000645638E0
1,998294873E3;2,375048161E0;7,278373241E-1;9,701305389E0
1,999294873E3;2,068590164E0;5,324704647E0;9,701305389E0
2,000294873E3;1,762132406E0;1,800439715E0;7,153874874E0
2,001294873E3;5,363011956E-1;1,493981838E0;1,049618053E1
2,002294873E3;9,959878922E-1;8,810662031E-1;9,538499832E0
2,003294873E3;7,661445439E-2;1,149216816E-1;8,274360657E0
2,004294873E3;3,830722570E-1;2,873042107E0;1,049618053E1
2,005294873E3;1,149216771E0;1,953668594E0;6,521805286E0
2,006294873E3;-8,427590132E-1;1,800439715E0;1,049618053E1
2,007294873E3;1,149216771E0;2,719813108E0;9,385271072E0
2,008294873E3;5,363011956E-1;2,719813108E0;8,590395927E0
2,009294873E3;5,363011956E-1;2,719813108E0;7,948749542E0
2,010294873E3;9,959878922E-1;2,873042107E0;1,129105568E1
2,011294873E3;-1,149216771E0;1,953668594E0;8,906430244E0
2,012294873E3;3,830722570E-1;1,340752959E0;7,632715225E0
2,013294873E3;5,363011956E-1;1,034295082E0;1,065898609E1
2,014294873E3;4,060565948E0;-6,512228847E-1;1,208592987E1
2,015294873E3;2,298433632E-1;-6,512228847E-1;6,837840080E0
2,016294873E3;6,895300746E-1;8,810662031E-1;8,906430244E0
2,017294873E3;1,455674648E0;1,800439715E0;8,590395927E0
2,018294873E3;2,528276920E0;5,746083856E-1;8,427590370E0
2,019294873E3;-5,363011956E-1;7,278373241E-1;7,000645638E0
2,020294873E3;-8,427590132E-1;1,340752959E0;1,193270111E1
2,021294873E3;-8,427590132E-1;1,187524080E0;8,274360657E0
2,022294873E3;9,959878922E-1;3,332728863E0;9,864110947E0
2,023294873E3;-2,298433632E-1;8,810662031E-1;9,385271072E0
2,024294873E3;6,895300746E-1;2,260126352E0;1,241154194E1
2,025294873E3;1,302445769E0;1,953668594E0;1,113782597E1
2,026294873E3;9,959878922E-1;2,106897593E0;8,906430244E0
2,027294873E3;9,959878922E-1;1,034295082E0;9,069235802E0
2,028294873E3;1,608903527E0;1,187524080E0;9,538499832E0
2,029294873E3;6,895300746E-1;-4,979939461E-1;9,538499832E0
2,030294873E3;6,895300746E-1;1,800439715E0;7,469909191E0
2,031294873E3;6,895300746E-1;4,558559895E0;8,111555099E0
2,032294873E3;6,895300746E-1;1,340752959E0;9,385271072E0
2,033294873E3;-2,298433632E-1;2,719813108E0;1,176989555E1
2,034294873E3;3,830722570E-1;8,810662031E-1;9,222464561E0
2,035294873E3;2,298433632E-1;2,106897593E0;9,385271072E0
2,036294873E3;-1,149216771E0;1,149216816E-1;7,469909191E0
2,037294873E3;-1,302445769E0;1,149216816E-1;8,274360657E0
2,038294873E3;-1,455674648E0;2,106897593E0;9,864110947E0
2,039294873E3;-7,661445439E-2;1,493981838E0;6,521805286E0
2,040294873E3;-9,959878922E-1;8,810662031E-1;1,049618053E1
2,041294873E3;3,830722570E-1;1,800439715E0;1,001733971E1
2,042294873E3;-6,895300746E-1;2,413355350E0;7,316680431E0
2,043294873E3;-8,427590132E-1;1,034295082E0;7,469909191E0
2,044294873E3;-3,830722570E-1;2,719813108E0;1,176989555E1
2,045294873E3;-6,895300746E-1;1,647210717E0;9,385271072E0
2,046294873E3;2,298433632E-1;1,187524080E0;8,274360657E0
2,047294873E3;-6,895300746E-1;1,800439715E0;1,034295177E1
2,048294873E3;3,830722570E-1;2,566584110E0;9,538499832E0
2,049294873E3;-2,298433632E-1;1,647210717E0;9,538499832E0
2,050294873E3;7,661445439E-2;1,149216816E-1;1,574427032E1
2,051294873E3;-6,895300746E-1;1,800439715E0;9,385271072E0
2,052294873E3;-2,298433632E-1;5,746083856E-1;9,222464561E0
2,053294873E3;7,661445439E-2;1,953668594E0;1,034295177E1
2,054294873E3;2,298433632E-1;1,340752959E0;9,222464561E0
2,055294873E3;-1,149216771E0;1,034295082E0;7,316680431E0
2,056294873E3;-1,302445769E0;2,566584110E0;1,097502041E1
2,057294873E3;-8,427590132E-1;1,800439715E0;7,948749542E0
2,058294873E3;-7,661445439E-2;1,034295082E0;9,864110947E0
2,059294873E3;8,427590132E-1;2,566584110E0;9,069235802E0
2,060294873E3;5,363011956E-1;1,493981838E0;6,521805286E0
2,061294873E3;-9,959878922E-1;1,187524080E0;8,427590370E0
2,062294873E3;-1,762132406E0;2,106897593E0;1,001733971E1
2,063294873E3;7,661445439E-2;1,034295082E0;8,590395927E0
2,064294873E3;7,661445439E-2;2,106897593E0;9,385271072E0
2,065294873E3;-5,363011956E-1;-3,830722719E-2;9,864110947E0
2,066294873E3;2,298433632E-1;3,026270866E0;1,160709000E1
2,067294873E3;9,959878922E-1;5,631162167E0;8,427590370E0
2,068294873E3;8,427590132E-1;1,187524080E0;6,837840080E0
2,069294873E3;-2,298433632E-1;8,810662031E-1;1,241154194E1
2,070294873E3;1,302445769E0;1,647210717E0;8,906430244E0
2,071294873E3;-1,302445769E0;7,278373241E-1;9,538499832E0
2,072294873E3;-3,830722570E-1;2,413355350E0;1,034295177E1
2,073294873E3;9,959878922E-1;5,477933407E0;7,632715225E0
2,074294873E3;1,302445769E0;2,681505978E-1;1,176989555E1
2,075294873E3;1,302445769E0;2,413355350E0;9,538499832E0
2,076294873E3;3,830722570E-1;1,800439715E0;9,538499832E0
2,077294873E3;7,661445439E-2;1,187524080E0;8,274360657E0
2,078294873E3;1,455674648E0;1,493981838E0;9,538499832E0
2,079294873E3;2,068590164E0;1,187524080E0;1,034295177E1
2,080294873E3;-1,302445769E0;1,149216816E-1;8,427590370E0
2,081294873E3;-6,895300746E-1;1,493981838E0;9,864110947E0
2,082294873E3;-9,959878922E-1;1,647210717E0;1,160709000E1
2,083294873E3;6,895300746E-1;2,106897593E0;9,222464561E0
2,084294873E3;-3,830722570E-1;1,034295082E0;7,153874874E0
2,085294873E3;-2,298433632E-1;2,413355350E0;1,049618053E1
2,086294873E3;1,149216771E0;2,260126352E0;8,274360657E0
2,087294873E3;2,298433632E-1;1,647210717E0;8,274360657E0
2,088294873E3;1,915361404E0;2,106897593E0;8,906430244E0
2,089294873E3;-8,427590132E-1;1,647210717E0;7,316680431E0
2,090294873E3;-7,661445439E-2;2,413355350E0;1,176989555E1
2,091294873E3;-3,830722570E-1;2,106897593E0;7,469909191E0
2,092294873E3;-5,363011956E-1;1,953668594E0;9,864110947E0
