Time (s),Linear Acceleration x (m/s^2),Linear Acceleration y (m/s^2),Linear Acceleration z (m/s^2)
0,"-4,212999940E-1","-4,377000034E-1","-9,017999768E-1"
1,"8,209999651E-2","-3,956999779E-1","1,086799979E0"
2,"4,156000018E-1","-7,419999689E-2","1,515000015E-1"
3,"5,430999994E-1","-4,160999954E-1","1,636699915E0"
4,"5,389999747E-1","3,489999771E-1","3,792999983E-1"
5,"1,036599994E0","9,979999661E-1","3,506000042E-1"
6,"1,964000016E-1","1,709999889E-2","3,267999887E-1"
7,"-1,125599980E0","6,392999887E-1","-2,405999899E-1"
8,"9,549999982E-2","-1,141499996E0","6,003000140E-1"
9,"-4,719999805E-2","2,678000033E-1","2,160999924E-1"
10,"-1,166999936E-1","-8,799999952E-2","8,946999907E-1"
11,"-2,924199820E0","5,181999803E-1","6,246199608E0"
12,"1,517599940E0","7,089999914E-1","-2,498999834E0"
13,"6,577000022E-1","-3,221999884E0","1,361999959E-1"
14,"7,691999674E-1","1,799099922E0","8,001999855E-1"
15,"-2,556399822E0","-6,399999559E-2","3,075000048E-1"
16,"3,360999823E-1","9,065999985E-1","-1,562199950E0"
17,"8,421999812E-1","8,693000078E-1","-1,367599964E0"
18,"9,195999503E-1","-5,882999897E-1","-9,257999659E-1"
19,"5,752299786E0","-3,031599998E0","5,625299931E0"
20,"-6,189799786E0","-7,188999653E-1","-5,608799934E0"
21,"-9,230999947E-1","-7,430999875E-1","-5,322499752E0"
22,"-6,667999625E-1","7,868999839E-1","-1,032999977E-1"
23,"8,840999603E-1","1,334499955E0","1,045599937E0"
24,"-5,941999555E-1","1,186699986E0","-1,289099932E0"
25,"5,069999695E-1","-5,690000057E-1","1,232299924E0"
26,"-4,408999979E-1","-9,289000034E-1","2,581999898E-1"
27,"-8,789999485E-1","2,671000063E-1","-4,086000025E-1"
28,"6,200999618E-1","9,429999441E-2","-5,504999757E-1"
29,"-6,531999707E-1","-2,201000005E-1","-1,165899992E0"
30,"2,769699812E0","1,048300028E0","1,648499966E0"
31,"2,146899939E0","3,518999815E-1","2,154799938E0"
32,"-1,154099941E0","2,342000008E-1","-1,406599998E0"
33,"2,547999918E-1","-1,675799966E0","1,599499941E0"
34,"1,533999890E-1","9,257999659E-1","-2,225999981E-1"
35,"-1,647199988E0","-1,009999961E-2","-3,865000010E-1"
36,"-2,744999826E-1","4,415999949E-1","3,517999947E-1"
37,"-1,110999942E0","-1,042699933E0","-9,030000120E-2"
38,"2,753499985E0","-1,551199913E0","-3,792699814E0"
39,"-7,930999994E-1","3,798999786E-1","-1,529699922E0"
40,"1,529500008E0","2,926999927E-1","-2,202199936E0"
41,"7,945999503E-1","-3,792999983E-1","1,612999886E-1"
42,"9,502999783E-1","9,104999900E-1","-2,535799980E0"
43,"-5,709999800E-1","-3,488999903E-1","-1,395999938E-1"
44,"2,040999979E-1","7,699999958E-2","-2,370999902E-1"
45,"-2,579999901E-2","1,856999993E-1","1,251600027E0"
46,"1,171000004E-1","-4,360000044E-2","5,261999965E-1"
47,"2,462999970E-1","5,447999835E-1","-8,509999514E-2"
48,"5,558999777E-1","-1,358299971E0","1,123799920E0"
49,"-1,202399969E0","1,349999942E-2","-7,109999657E-1"
50,"-4,671999812E-1","-5,700000003E-2","3,694999814E-1"
51,"-4,143999815E-1","3,204999864E-1","-7,229999900E-1"
52,"-1,451099992E0","-7,529999614E-1","6,220999718E0"
53,"1,587999910E-1","3,457999825E-1","1,613499999E0"
54,"-8,544999957E-1","-7,999999449E-3","1,493600011E0"
55,"-4,095999897E-1","-6,924999952E-1","1,391699910E0"
56,"-2,685999870E-1","5,539999604E-1","-1,888199925E0"
57,"9,254999757E-1","-1,879399896E0","1,047399998E0"
58,"-1,076699972E0","5,108999610E-1","-7,520999908E-1"
59,"1,054499984E0","1,478500009E0","-1,876699924E0"
60,"6,699999794E-3","4,010999799E-1","-5,045999885E-1"
61,"-4,904999733E-1","5,252999663E-1","8,049999923E-2"
62,"7,140000165E-2","4,675999880E-1","-4,323999882E-1"
63,"-7,700999975E-1","5,444999933E-1","-1,179299951E0"
64,"3,249000013E-1","-1,272999942E-1","2,454999983E-1"
65,"-7,299999706E-3","7,099999487E-2","4,679999873E-2"
66,"-3,273999989E-1","2,949000001E-1","1,112999991E-1"
67,"-1,180000007E-1","-1,252000034E-1","9,638999701E-1"
68,"-1,921999902E-1","1,868999898E-1","3,319999948E-2"
69,"-1,459999979E-1","5,699999630E-3","-2,558999956E-1"
70,"1,982999891E-1","2,383999974E-1","-1,638000011E-1"
71,"-2,620000020E-2","-4,639999941E-2","4,059999883E-1"
72,"1,184000000E-1","1,489999983E-2","1,451999992E-1"
73,"1,741999984E-1","-1,081999987E-1","1,232999936E-1"
74,"-3,209999949E-2","7,339999825E-2","7,580000162E-2"
75,"-4,253999889E-1","5,874999762E-1","1,463999897E-1"
76,"1,913199902E0","2,275999933E-1","-3,042099953E0"
77,"-8,222000003E-1","1,010200024E0","3,534999788E-1"
78,"-7,543999553E-1","1,193000004E-1","9,085999727E-1"
79,"8,657999635E-1","-2,679999918E-2","-3,696999848E-1"
80,"2,437999994E-1","-4,652999938E-1","1,527999938E-1"
81,"-9,309999943E-1","4,730999768E-1","2,541199923E0"
82,"-1,417999983E0","1,182999983E-1","2,158299923E0"
83,"-6,639999896E-2","-5,689999834E-2","8,731999993E-1"
84,"-2,292999923E-1","7,892000079E-1","2,924999893E-1"
85,"-8,095999956E-1","-5,799999833E-1","5,419999734E-2"
86,"-3,467999995E-1","-1,406999975E-1","-7,387999892E-1"
87,"-5,119999647E-1","2,079999894E-1","-7,232999802E-1"
88,"3,379999846E-2","5,794999599E-1","-2,129199982E0"
89,"-1,271999955E0","-2,867999971E-1","1,721499920E0"
90,"-1,612900019E0","-9,809999913E-2","1,817600012E0"
91,"-1,173999980E-1","-9,380000085E-2","-1,354900002E0"
92,"8,860999942E-1","9,734999537E-1","-6,017000079E-1"
93,"-8,693999648E-1","4,479999840E-1","-1,425999999E0"
94,"1,040799975E0","-7,559999824E-2","1,843999922E-1"
95,"-6,712999940E-1","6,706999540E-1","4,615999758E-1"
96,"-1,728999913E-1","2,307000011E-1","6,216999888E-1"
97,"2,184000015E-1","-5,181999803E-1","-2,926999927E-1"
98,"2,145999968E-1","-1,064599991E0","2,137099981E0"
99,"-1,845499992E0","-2,492999882E-1","1,066999957E-1"
100,"1,195899963E0","3,231000006E-1","-6,358000040E-1"
101,"-1,756999940E-1","3,889999986E-1","-1,914999932E-1"
102,"6,737999916E-1","-3,608999848E-1","7,707999945E-1"
103,"-3,130000085E-2","3,208000064E-1","-1,025200009E0"
104,"5,799999926E-3","5,378000140E-1","6,729999930E-2"
105,"-5,461999774E-1","4,490000010E-2","-2,300000051E-3"
106,"-1,129099965E0","-4,140999913E-1","1,011799932E0"
107,"9,869999886E-1","1,053999960E-1","1,208999977E-1"
108,"-3,940999806E-1","1,142999977E-1","5,909999833E-2"
109,"-4,389999807E-2","6,186999679E-1","-5,004999638E-1"
110,"1,815000027E-1","4,425999820E-1","1,973999888E-1"
111,"-1,844499946E0","4,468999803E-1","6,897999644E-1"
112,"4,729999900E-1","9,932000041E-1","-2,310999930E-1"
113,"1,903999895E-1","-4,206999838E-1","2,355999947E-1"
114,"-7,699999958E-3","-1,197199941E0","-5,275999904E-1"
115,"-4,038999975E-1","4,987999797E-1","2,041999996E-1"
116,"-7,667999864E-1","3,655999899E-1","-1,055799961E0"
117,"-1,671999931E0","-1,762000024E-1","1,555299997E0"
118,"8,366000056E-1","4,259999990E-1","1,392000020E-1"
119,"1,089200020E0","-9,162999988E-1","-3,319999874E-1"
120,"2,629999816E-1","8,299999870E-3","4,159999788E-1"
121,"-7,742999792E-1","7,324000001E-1","-1,636999995E-1"
122,"-2,009899855E0","5,392000079E-1","7,403999567E-1"
123,"9,044999480E-1","7,150999904E-1","-2,483899832E0"
124,"1,062600017E0","-5,044999719E-1","-4,989999905E-2"
125,"2,208999991E-1","-4,136999846E-1","7,252999544E-1"
126,"-3,937000036E-1","7,599999756E-2","1,032899976E0"
127,"-1,330199957E0","-7,544999719E-1","1,648299932E0"
128,"5,419999957E-1","5,547999740E-1","-1,636899948E0"
129,"6,037999988E-1","2,356999964E-1","-2,094099998E0"
130,"5,128999949E-1","-4,332000017E-1","1,238799930E0"
131,"1,036999971E-1","-3,732999861E-1","-1,934999973E-1"
132,"-8,493999839E-1","-5,220000148E-1","-1,447999924E-1"
133,"-1,510999948E-1","-5,257999897E-1","1,364300013E0"
134,"-2,518000007E-1","6,768999696E-1","1,610899925E0"
135,"-1,630999893E-1","4,140999913E-1","-1,604900002E0"
136,"4,865999818E-1","-1,989999972E-2","7,044999599E-1"
137,"-9,362999797E-1","-3,881999850E-1","1,735399961E0"
138,"-4,812999964E-1","3,016999960E-1","3,823999763E-1"
139,"3,164999783E-1","1,579999924E-1","7,269999981E-1"
140,"7,798999548E-1","-4,213999808E-1","-3,100999892E-1"
141,"-2,500000000E-1","1,995999962E-1","5,623999834E-1"
142,"2,988999784E-1","-7,956999540E-1","-1,523899913E0"
143,"1,136999950E-1","1,186499953E0","6,460999846E-1"
144,"1,524699926E0","-1,222599983E0","1,308200002E0"
145,"-3,844999969E-1","-1,378999949E-1","2,926000059E-1"
146,"-5,364999771E-1","1,278999895E-1","1,654999971E0"
147,"-2,274999917E-1","-2,965999842E-1","-3,979999945E-2"
148,"6,574000120E-1","6,567999721E-1","-1,095399976E0"
149,"6,426999569E-1","-7,229999900E-1","-3,093000054E-1"
150,"1,999999862E-3","2,759999931E-1","5,126000047E-1"
151,"-6,268000007E-1","4,699999839E-2","1,706699967E0"
152,"-1,613999963E0","3,429999948E-1","8,955000043E-1"
153,"9,047999978E-1","4,774999917E-1","-6,883999705E-1"
154,"7,364000082E-1","1,955999881E-1","3,039000034E-1"
155,"-9,876999855E-1","6,791999936E-1","-9,679999948E-1"
156,"5,245999694E-1","8,545999527E-1","-9,547999501E-1"
157,"5,511999726E-1","-3,109999932E-2","-8,278999925E-1"
158,"-1,346300006E0","3,725000024E-1","8,862999678E-1"
159,"8,459999561E-1","-2,734999955E-1","1,559199929E0"
160,"3,222000003E-1","-2,575999796E-1","-2,557999790E-1"
161,"-7,074999809E-1","1,867000014E-1","2,317999899E-1"
162,"-1,006399989E0","-2,901999950E-1","-5,533999801E-1"
163,"9,355999827E-1","-4,953999817E-1","9,020999670E-1"
164,"6,151999831E-1","6,229999661E-2","8,197000027E-1"
165,"-1,694700003E0","3,064000010E-1","1,219999976E-2"
166,"9,719999880E-2","5,178999901E-1","-8,032000065E-1"
167,"2,111999989E-1","-8,693999648E-1","2,438099861E0"
168,"-3,506999910E-1","6,628999710E-1","1,045999974E-1"
169,"-1,092000008E0","5,689999834E-2","5,737000108E-1"
170,"9,301999807E-1","-5,906000137E-1","2,785199881E0"
171,"9,338999987E-1","5,615000129E-1","1,485499978E0"
172,"-4,087999761E-1","-7,154999971E-1","1,177999973E-1"
173,"-1,063099980E0","-4,794999957E-1","7,999999449E-3"
174,"4,018999934E-1","3,867000043E-1","7,688999772E-1"
175,"2,284999937E-1","-3,700000048E-1","2,529999912E-1"
176,"-1,460999995E-1","-2,403999865E-1","1,115499973E0"
177,"-4,020999968E-1","-3,975999951E-1","-8,501999974E-1"
178,"5,263999701E-1","6,671000123E-1","-2,523200035E0"
179,"1,180499911E0","-4,727999866E-1","-1,261500001E0"
180,"6,539999694E-2","1,446999907E-1","-4,100999832E-1"
181,"-7,530000061E-2","3,303999901E-1","-1,636600018E0"
182,"-1,197000027E0","-1,239999942E-2","7,328000069E-1"
183,"5,633000135E-1","2,044999897E-1","8,677999973E-1"
184,"1,935999990E-1","8,009999990E-2","-4,127999842E-1"
185,"-9,044999480E-1","-3,019999899E-2","2,050899982E0"
186,"-1,263099909E0","1,917999983E-1","2,531000078E-1"
187,"8,876000047E-1","-2,563000023E-1","1,782299995E0"
188,"6,164999604E-1","-5,728999972E-1","-3,249999881E-2"
189,"9,283999801E-1","5,342000127E-1","1,006299973E0"
190,"-7,405999899E-1","2,563999891E-1","2,748999894E-1"
191,"-1,148199916E0","-3,070000000E-2","1,561999917E-1"
192,"6,794999838E-1","2,884999812E-1","-1,918099999E0"
193,"-3,783999979E-1","7,430999875E-1","1,350099921E0"
194,"-3,449999914E-2","-8,339999616E-2","3,346000016E-1"
195,"7,662999630E-1","-8,299999684E-2","-1,947899938E0"
196,"9,017999768E-1","-4,837999940E-1","-4,845999777E-1"
197,"7,094999552E-1","2,769999802E-1","5,856999755E-1"
198,"9,648000002E-1","-5,351999998E-1","6,663999557E-1"
199,"-7,768999934E-1","1,239999942E-2","2,012599945E0"
200,"-3,807999790E-1","-4,524999857E-1","6,568099976E0"
201,"-6,179999933E-2","5,285999775E-1","1,375100017E0"
202,"7,404999733E-1","-4,741999805E-1","1,125299931E0"
203,"7,173999548E-1","-1,147099972E0","-2,523000002E0"
204,"2,719999850E-2","-7,035999894E-1","1,209999993E-2"
205,"1,036299944E0","-1,273999959E-1","2,014999866E0"
206,"-1,205099940E0","7,969999909E-1","3,452499866E0"
207,"-1,349900007E0","1,135399938E0","4,871999919E-1"
208,"-6,068999767E-1","1,160699964E0","-3,413800001E0"
209,"-5,769000053E-1","6,911999583E-1","-1,113299966E0"
210,"5,795999765E-1","-7,894999981E-1","1,440899968E0"
211,"-5,221999884E-1","-2,944999933E-1","-2,152999938E-1"
212,"7,737999558E-1","-2,038999945E-1","1,342599988E0"
213,"4,782999754E-1","2,421000004E-1","-1,315999985E0"
214,"-5,877999663E-1","1,782099962E0","-2,702499866E0"
215,"6,897999644E-1","-1,674000025E-1","5,505999923E-1"
216,"-6,665999889E-1","-4,308999777E-1","-4,199000001E-1"
217,"1,399999950E-2","6,924999952E-1","-1,562699914E0"
218,"-5,559999868E-2","-3,375000060E-1","-3,029299974E0"
219,"-1,701999903E-1","-8,089999557E-1","-1,101999998E0"
220,"2,246999890E-1","-3,233999908E-1","-1,307699919E0"
221,"-2,039999887E-2","-2,505999804E-1","4,953999817E-1"
222,"7,198999524E-1","7,892000079E-1","-1,598999977E0"
223,"6,216999888E-1","-1,578699946E0","8,746999502E-1"
224,"4,095999897E-1","-4,745999873E-1","2,277499914E0"
225,"1,680999994E-1","2,745999992E-1","1,173999980E-1"
226,"-6,838999987E-1","8,915999532E-1","-2,160899878E0"
227,"1,038399935E0","-1,059100032E0","3,016299963E0"
228,"-1,079999954E-1","6,377999783E-1","5,268999934E-1"
229,"-1,359799981E0","1,955999881E-1","-1,119899988E0"
230,"2,847999930E-1","-1,961999983E-1","1,506799936E0"
231,"1,356000006E-1","1,775999963E-1","-7,928999662E-1"
232,"-8,184999824E-1","3,539999947E-2","-1,497699976E0"
233,"2,574999928E-1","-2,847999930E-1","-6,721999645E-1"
234,"-8,579999954E-2","3,507999778E-1","-2,540999949E-1"
235,"-2,839999795E-1","-2,284999937E-1","-2,719999850E-2"
236,"9,637999535E-1","-9,896000028E-1","6,300000008E-3"
237,"-1,255999923E0","-1,203999966E-1","3,099900007E0"
238,"-4,637999833E-1","-1,976999938E-1","1,422599912E0"
239,"1,095199943E0","-3,084000051E-1","-4,391999841E-1"
240,"-4,438999891E-1","-3,228999972E-1","3,842399836E0"
241,"-7,192999721E-1","3,078999817E-1","-7,700999975E-1"
242,"5,781999826E-1","-1,961999983E-1","5,884000063E-1"
243,"-1,767999977E-1","-3,219999969E-1","2,992799997E0"
244,"-9,447000027E-1","7,459999919E-1","4,705999792E-1"
245,"-1,112399936E0","2,584999800E-1","-4,819999933E-1"
246,"2,850999832E-1","9,529999644E-2","1,219499946E0"
247,"6,929000020E-1","-7,683999538E-1","1,119099975E0"
248,"4,333999753E-1","-1,244999990E-1","1,305099964E0"
249,"-8,075000048E-1","2,459999919E-2","1,585099936E0"
250,"-1,211499929E0","1,198999956E-1","-1,340799928E0"
251,"9,690000117E-2","6,013000011E-1","-9,168999791E-1"
252,"-1,386999935E-1","-3,112999797E-1","8,955000043E-1"
253,"4,687999785E-1","1,399999950E-2","-5,685999990E-1"
254,"3,136999905E-1","-3,050000072E-1","6,466000080E-1"
255,"3,838999867E-1","2,601000071E-1","1,888999939E-1"
256,"-4,008999765E-1","8,769999444E-2","1,814099908E0"
257,"5,819999799E-2","3,754999936E-1","-1,276299953E0"
258,"-5,873000026E-1","1,683999896E-1","-5,256999731E-1"
259,"-1,374899983E0","1,651999950E-1","-1,120299935E0"
260,"-9,811999798E-1","3,811999857E-1","-7,827999592E-1"
261,"-1,593999982E0","6,751999855E-1","-5,726000071E-1"
262,"-9,730999470E-1","3,746999800E-1","-4,060999751E-1"
263,"4,329999909E-2","-2,043000013E-1","-3,062999845E-1"
264,"3,188000023E-1","4,813999832E-1","4,652999938E-1"
265,"1,606599927E0","-4,697999954E-1","-1,801999956E-1"
266,"2,122000009E-1","-4,147000015E-1","1,228999943E-1"
267,"3,522000015E-1","-6,464999914E-1","6,362999678E-1"
268,"1,586999893E-1","-1,283999979E-1","4,849999771E-2"
269,"1,224999949E-1","2,466999888E-1","1,395999938E-1"
270,"4,491999745E-1","-1,371999979E-1","-1,313300014E0"
271,"-4,521999955E-1","8,357999921E-1","-1,162500024E0"
272,"1,099999994E-3","3,344999850E-1","1,150399923E0"
273,"3,398000002E-1","7,519999892E-2","7,962999940E-1"
274,"8,064999580E-1","-5,523999929E-1","5,886999965E-1"
275,"2,084999979E-1","-1,388999939E0","8,944000006E-1"
276,"1,197600007E0","-1,067700028E0","-1,630499959E0"
277,"-4,211999774E-1","-1,391699910E0","4,975699902E0"
278,"1,167099953E0","-5,249999762E-1","-5,899999738E-1"
279,"1,826999933E-1","1,035999954E-1","-7,991999984E-1"
280,"1,070599914E0","-5,269999802E-2","-2,685999870E-1"
281,"-6,603999734E-1","-5,717999935E-1","2,033400059E0"
282,"-2,827999890E-1","5,210999846E-1","-5,304999948E-1"
283,"-6,807999611E-1","-5,133000016E-1","2,859699965E0"
284,"-1,191900015E0","8,659999818E-2","2,286999971E-1"
285,"-1,774699926E0","1,523000002E-1","2,419399977E0"
286,"9,009999782E-2","5,424999595E-1","-7,282999754E-1"
287,"5,022000074E-1","-1,045999974E-1","-1,304899931E0"
288,"1,679499984E0","4,055999815E-1","-2,732399940E0"
289,"-2,304999977E-1","5,956999660E-1","3,438999891E0"
290,"-6,729999930E-2","6,157000065E-1","-8,944000006E-1"
291,"-1,889999956E-2","4,836999774E-1","-3,004099846E0"
292,"-5,327999592E-1","2,629199982E0","-4,698199749E0"
293,"4,807999730E-1","3,446999788E-1","-2,106099844E0"
294,"9,742999673E-1","-6,053999662E-1","-2,795000076E-1"
295,"5,687999725E-1","-4,976999760E-1","1,512499928E0"
296,"5,713999867E-1","1,016499996E0","-4,305999875E-1"
297,"-5,819999576E-1","-7,708999515E-1","2,006799936E0"
298,"-1,289099932E0","2,406999916E-1","-1,405399919E0"
299,"-8,463000059E-1","2,768000066E-1","3,929999843E-2"
300,"-1,541000009E-1","1,157199979E0","2,163399935E0"
301,"3,450999856E-1","2,630999982E-1","-2,559999935E-2"
302,"4,710000008E-2","1,994999945E-1","-1,012699962E0"
303,"6,575999856E-1","-2,557999790E-1","-6,735000014E-1"
304,"-1,529999916E-2","1,173999980E-1","1,458400011E0"
305,"-2,352999896E-1","1,799999923E-2","9,615999460E-1"
306,"1,849000007E-1","1,784999967E-1","6,705999970E-1"
307,"1,792999953E-1","1,406999975E-1","-1,430999994E0"
308,"8,838999867E-1","-7,385999560E-1","3,371799946E0"
309,"2,881999910E-1","-3,539999947E-2","-4,999999888E-3"
310,"-5,599999800E-3","-7,100999951E-1","1,980099916E0"
311,"-5,544999838E-1","-4,174000025E-1","1,346099973E0"
312,"-7,972999811E-1","4,439999908E-2","-5,572999716E-1"
313,"-4,628999829E-1","3,370000049E-2","-2,694000006E-1"
314,"-2,694999874E-1","6,629999876E-1","-2,970999777E-1"
315,"-5,458999872E-1","2,016399860E0","-6,292999983E-1"
316,"-2,648999989E-1","8,950999975E-1","7,769999653E-2"
317,"5,799999833E-2","-2,802999914E-1","8,551999927E-1"
318,"7,732999921E-1","-1,222100019E0","5,784999728E-1"
319,"-1,597999930E-1","-4,948999882E-1","2,419899940E0"
320,"1,777999997E0","2,060000002E-1","-1,696200013E0"
321,"-7,515000105E-1","-1,030499935E0","-6,121999621E-1"
322,"6,269999743E-1","5,816999674E-1","-2,080000006E-2"
323,"5,414000154E-1","6,739000082E-1","-2,207499981E0"
324,"-1,880399942E0","2,077800035E0","5,657700062E0"
325,"3,312999904E-1","-2,027999908E-1","-5,996999741E0"
326,"-2,895999849E-1","1,960000023E-2","-1,276099920E0"
327,"1,041299939E0","4,411999881E-1","-3,241499901E0"
328,"1,225899935E0","-3,695999980E-1","2,346299887E0"
329,"9,692999721E-1","8,080999851E-1","2,165799856E0"
330,"-4,332999885E-1","1,038100004E0","2,119099855E0"
331,"8,159999549E-2","-5,127999783E-1","-1,709999919E0"
332,"6,740000099E-2","-5,260999799E-1","-7,931999564E-1"
333,"7,777000070E-1","2,036999911E-1","-1,398999929E0"
334,"6,143000126E-1","2,171999961E-1","-6,229999661E-2"
335,"4,271999896E-1","-6,193999648E-1","2,585799932E0"
336,"1,972000003E-1","9,749999642E-2","1,456799984E0"
337,"-1,857299924E0","4,175999761E-1","-5,238999724E-1"
338,"4,052999914E-1","-4,004999995E-1","2,169999927E-1"
339,"4,845999777E-1","1,241999939E-1","-2,633999884E-1"
340,"-7,689999789E-2","-2,908000052E-1","-1,158100009E0"
341,"-2,269999869E-2","-1,401000023E-1","1,889999956E-1"
342,"-2,264899969E0","3,597999811E-1","1,310299993E0"
343,"1,113199949E0","6,367999911E-1","6,523999572E-1"
344,"7,254999876E-1","-1,074900031E0","7,249999642E-1"
345,"4,901999831E-1","2,812999785E-1","-1,490599990E0"
346,"-7,303999662E-1","1,695999950E-1","4,750999808E-1"
347,"-2,124799967E0","1,026499987E0","1,554099917E0"
348,"9,750999808E-1","1,075999975E0","6,556999683E-1"
349,"1,797000021E-1","-6,618999839E-1","2,628399849E0"
350,"-7,339999676E-1","6,290000081E-1","5,121999979E-1"
351,"-9,501000047E-1","7,079999894E-2","-2,074999958E-1"
352,"7,608000040E-1","-2,567999959E-1","-1,388399959E0"
353,"7,155999541E-1","1,488000005E-1","-1,799399972E0"
354,"-1,912999898E-1","1,732999980E-1","2,685999870E-1"
355,"-8,472999930E-1","-4,083999991E-1","1,312600017E0"
356,"-5,024999976E-1","-1,507000029E-1","-1,166499972E0"
357,"7,925999761E-1","5,188999772E-1","-1,594000012E-1"
358,"8,285999894E-1","3,419999778E-2","-1,005699992E0"
359,"-3,643999994E-1","4,395999908E-1","-1,284999996E-1"
360,"-1,378700018E0","-2,190999985E-1","1,310099959E0"
361,"9,170999527E-1","4,329999909E-2","-1,823099971E0"
362,"1,677799940E0","-4,885999858E-1","-6,547999978E-1"
363,"3,735999763E-1","-3,449999988E-1","-2,797999978E-1"
364,"-8,409000039E-1","3,677999973E-1","8,014000058E-1"
365,"-2,052000016E-1","-1,225999966E-1","-4,217999876E-1"
366,"-5,099999718E-3","8,540999889E-1","1,166199923E0"
367,"8,799999952E-1","1,691000015E-1","-5,949999690E-1"
368,"4,852999747E-1","1,085899949E0","-1,289999962E0"
369,"-9,005999565E-1","-8,211999536E-1","1,165099978E0"
370,"5,554000139E-1","3,350999951E-1","-1,537899971E0"
371,"1,010699987E0","-5,426999927E-1","-1,499799967E0"
372,"7,886999846E-1","2,577999830E-1","-3,107100010E0"
373,"-8,222000003E-1","1,143999994E-1","9,896999598E-1"
374,"-7,074999809E-1","7,059999555E-2","4,704999924E-1"
375,"9,479999542E-1","8,919999748E-2","1,004999951E-1"
376,"9,451999664E-1","-3,379999846E-2","1,195999980E-1"
377,"-4,729999974E-2","1,816999912E-1","-1,102999926E0"
378,"-7,786999941E-1","-9,070000052E-2","-2,122099876E0"
379,"4,118999839E-1","2,426999956E-1","2,969999909E-1"
380,"1,068400025E0","-9,659999609E-1","2,002500057E0"
381,"6,911000013E-1","4,193999767E-1","-1,720399976E0"
382,"-2,827000022E-1","8,873999715E-1","-5,040000007E-2"
383,"-1,160099983E0","-2,769999951E-2","9,894999862E-1"
384,"2,635999918E-1","5,913999677E-1","7,299000025E-1"
385,"7,863000035E-1","-9,517999887E-1","-1,587799907E0"
386,"2,599999867E-2","4,883999825E-1","-9,995999932E-1"
387,"-1,456200004E0","4,822999835E-1","2,246999890E-1"
388,"-1,205799937E0","7,789999992E-2","-6,625999808E-1"
389,"4,617999792E-1","2,020999938E-1","9,686999917E-1"
390,"6,028000116E-1","-7,275999784E-1","8,104999661E-1"
391,"1,951999962E-1","1,322000027E-1","5,486999750E-1"
392,"-1,553699970E0","-4,329999909E-2","7,137999535E-1"
393,"-8,761999607E-1","4,323999882E-1","1,509299994E0"
394,"3,154999912E-1","-6,723999977E-1","1,685499907E0"
395,"6,302999854E-1","-6,857999563E-1","2,657999992E-1"
396,"-6,917999983E-1","6,617000103E-1","8,204999566E-1"
397,"1,569999941E-2","3,411999941E-1","4,456299782E0"
398,"5,835999846E-1","4,530999959E-1","6,631000042E-1"
399,"-7,433999777E-1","-6,527999640E-1","-1,729599953E0"
400,"2,545000017E-1","4,702000022E-1","5,509999767E-2"
401,"2,800999880E0","-1,309899926E0","6,286999583E-1"
402,"4,210000038E-1","5,667999983E-1","2,118999958E0"
403,"6,039999723E-1","4,400999844E-1","1,763599992E0"
404,"-1,921999902E-1","4,389999807E-1","4,131999910E-1"
405,"-5,407999754E-1","-3,676999807E-1","-4,540999830E-1"
406,"-1,668900013E0","-4,921000004E-1","-7,026999593E-1"
407,"6,553999782E-1","5,939999968E-2","-1,077899933E0"
408,"8,834999800E-1","1,163800001E0","-6,688999534E-1"
409,"2,236999869E-1","-7,256999612E-1","5,583999753E-1"
410,"8,766999841E-1","-1,018800020E0","1,158499956E0"
411,"3,252999783E-1","8,910999894E-1","-3,375999928E-1"
412,"-9,530999660E-1","-1,333999932E-1","-5,475999713E-1"
413,"-2,331199884E0","1,193000004E-1","-4,120000005E-1"
414,"-4,918999970E-1","-2,719999850E-1","1,774999946E-1"
415,"1,362999976E-1","8,084999919E-1","-8,276999593E-1"
416,"1,897999942E-1","3,470000029E-1","6,399999857E-1"
417,"2,540999949E-1","-9,298999906E-1","9,504999518E-1"
418,"3,888999820E-1","3,610999882E-1","2,379999906E-1"
419,"7,767999768E-1","7,297999859E-1","1,040199995E0"
420,"-5,191000104E-1","6,870000064E-2","2,125999928E-1"
421,"-1,954499960E0","2,447999865E-1","6,053000093E-1"
422,"-3,989999890E-1","3,443999887E-1","1,868099928E0"
423,"4,138999879E-1","-4,640999734E-1","-1,999999881E-1"
424,"7,231999636E-1","8,569999784E-2","-3,662099838E0"
425,"-2,247999907E-1","1,878999919E-1","2,533599854E0"
426,"-2,325999886E-1","8,297999501E-1","1,951099992E0"
427,"-1,782199979E0","-7,270000130E-2","6,327999830E-1"
428,"1,306999922E-1","6,350000203E-2","-4,166999757E-1"
429,"6,517999768E-1","5,802999735E-1","7,730999589E-1"
430,"1,197000027E0","-9,741999507E-1","-2,604999840E-1"
431,"4,943999946E-1","3,815999925E-1","2,383999974E-1"
432,"-4,619999826E-1","1,919000000E-1","1,364899993E0"
433,"-8,495000005E-1","-2,016000003E-1","-1,975799918E0"
434,"8,859999776E-1","6,380999684E-1","1,480000000E-2"
435,"7,208999991E-1","-2,920999825E-1","-1,004699945E0"
436,"1,032599926E0","-2,988999784E-1","3,876999915E-1"
437,"7,170999646E-1","-1,074000001E-1","-5,855000019E-1"
438,"-1,254400015E0","1,489000022E-1","2,426999956E-1"
439,"-1,956200004E0","5,690000057E-1","-1,030399919E0"
440,"8,982999921E-1","8,028999567E-1","5,720999837E-1"
441,"-3,559999913E-2","-4,508000016E-1","8,240000010E-1"
442,"6,183999777E-1","1,333999932E-1","-6,294999719E-1"
443,"-1,519999932E-2","5,098999739E-1","-1,425699949E0"
444,"-2,592000067E-1","5,641999841E-1","4,510999918E-1"
445,"5,568000078E-1","-8,783999681E-1","1,021199942E0"
446,"6,288999915E-1","-4,341999888E-1","5,949999765E-2"
447,"-2,317999899E-1","5,008000135E-1","1,327099919E0"
448,"2,236999869E-1","1,154199958E0","-1,310799956E0"
449,"-5,855000019E-1","4,834999740E-1","1,051499963E0"
450,"-7,645999789E-1","2,699999809E-1","-1,255999953E-1"
451,"-6,306999922E-1","-1,409999933E-2","-1,212299943E0"
452,"-1,668999940E-1","7,550999522E-1","7,222999930E-1"
453,"3,792999983E-1","7,396000028E-1","6,351000071E-1"
454,"1,116500020E0","-1,113099933E0","4,268999994E-1"
455,"2,742999792E-1","-2,421000004E-1","-6,735000014E-1"
456,"1,432999969E-1","2,096199989E0","-3,385399818E0"
457,"-4,477999806E-1","-9,453999996E-1","2,045099974E0"
458,"-5,286999941E-1","-3,766999841E-1","-8,928999901E-1"
459,"-8,192999959E-1","7,519999892E-2","2,148099899E0"
460,"3,759000003E-1","-4,554999769E-1","8,696999550E-1"
461,"-5,906000137E-1","3,434999883E-1","4,944299698E0"
462,"6,606999636E-1","6,599999964E-3","-3,831999898E-1"
463,"-8,664000034E-1","2,052999884E-1","1,145799994E0"
464,"3,899999894E-3","1,738999933E-1","-1,502699971E0"
465,"-5,501999855E-1","5,953999758E-1","1,820999980E-1"
466,"-4,800999761E-1","6,596999764E-1","-5,159000158E-1"
467,"-1,102299929E0","1,325099945E0","-1,137399912E0"
468,"-2,960999906E-1","1,913199902E0","-3,238999844E0"
469,"8,019999862E-1","-7,871999741E-1","9,939999878E-2"
470,"-2,310999930E-1","9,745999575E-1","4,205999970E-1"
471,"-4,670999944E-1","-2,281999886E-1","-6,013999581E-1"
472,"-1,309999973E-1","1,851999909E-1","7,019999623E-2"
473,"3,900000080E-2","1,949999928E-1","1,542000026E-1"
474,"-4,999999655E-4","1,648000032E-1","1,853999943E-1"
475,"-4,065999985E-1","7,599999756E-2","-7,999999798E-4"
476,"1,150000002E-2","2,662000060E-1","2,581000030E-1"
477,"7,319999486E-2","6,989999861E-2","1,691000015E-1"
478,"-1,158000007E-1","9,179999679E-2","4,541999996E-1"
479,"5,119999871E-2","2,775000036E-1","1,169999968E-2"
480,"2,620000020E-2","2,346999943E-1","1,561999917E-1"
481,"-2,809999883E-2","3,000000026E-3","9,059999883E-2"
482,"-2,529999986E-2","1,297999918E-1","3,210999966E-1"
483,"-2,703999877E-1","2,628999949E-1","3,366000056E-1"
484,"1,493999958E-1","1,977999955E-1","-2,689999901E-2"
485,"-5,900000036E-2","-7,199999876E-3","1,777999997E-1"
486,"5,859999731E-2","2,578999996E-1","1,300000004E-3"
487,"-6,699999794E-3","2,974999845E-1","-2,840000018E-2"
488,"-9,459999949E-2","1,159999967E-1","-3,429999948E-2"
489,"1,097999960E-1","1,889999956E-1","4,011999965E-1"
490,"6,459000111E-1","-2,050999999E-1","-5,869999900E-2"
491,"7,881000042E-1","2,078000009E-1","1,795099974E0"
492,"-1,011199951E0","1,096799970E0","-5,439000130E-1"
493,"-2,640999854E-1","9,669999778E-2","-5,586000085E-1"
494,"2,069999874E-1","-9,284999967E-1","1,554899931E0"
495,"-1,381699920E0","-8,630000055E-2","2,243000031E0"
496,"6,843999624E-1","-2,351999879E-1","-5,279999971E-1"
497,"1,717000008E-1","-1,456599951E0","6,791999936E-1"
498,"-1,678999901E0","7,874000072E-1","6,460999846E-1"
499,"4,694999754E-1","5,979999900E-2","6,592000127E-1"
500,"-2,254000008E-1","-1,343400002E0","1,258899927E0"
501,"1,641999930E-1","-1,826999933E-1","2,259999886E-2"
502,"5,694999695E-1","-4,154999852E-1","7,017999887E-1"
503,"-1,779000014E-1","6,528999805E-1","-1,428300023E0"
504,"-9,298999906E-1","-1,498000026E-1","4,764999747E-1"
505,"-6,161000133E-1","-4,303999841E-1","3,499999940E-1"
506,"1,141199946E0","1,594799995E0","-3,642999887E0"
507,"3,091999888E-1","3,104999959E-1","-4,959999770E-2"
508,"8,210999966E-1","-4,825999737E-1","-3,594000041E-1"
509,"6,861999631E-1","-2,561999857E-1","2,432999909E-1"
510,"4,529999793E-1","5,740999579E-1","-3,619999811E-2"
511,"-2,768999934E-1","4,153999984E-1","1,079999935E-2"
512,"-6,601999998E-1","-1,317999959E-1","1,056599975E0"
513,"3,195999861E-1","5,591999888E-1","-1,301599979E0"
514,"-6,199999712E-3","3,755999804E-1","-1,376699924E0"
515,"5,551999807E-1","1,779000014E-1","1,332999915E-1"
516,"6,567999721E-1","7,094999552E-1","-1,231400013E0"
517,"-2,003999949E-1","5,940999985E-1","8,180999756E-1"
518,"1,182899952E0","-5,026000142E-1","8,199999481E-2"
519,"2,101999968E-1","-4,113000035E-1","-1,744999886E-1"
520,"1,994999945E-1","2,836000025E-1","-3,807999790E-1"
521,"-4,807999730E-1","-9,257999659E-1","8,872999549E-1"
522,"1,069299936E0","-3,570000082E-2","-1,581399918E0"
523,"9,003999829E-1","5,151000023E-1","-1,760399938E0"
524,"7,749999762E-1","1,929999888E-1","-1,047500014E0"
525,"-4,000999928E-1","-1,612000018E-1","4,951999784E-1"
526,"-9,003999829E-1","-1,860999912E-1","-6,556000113E-1"
527,"-5,055999756E-1","-2,093999982E-1","1,716599941E0"
528,"-1,501999944E-1","-6,469999999E-2","7,954999804E-1"
529,"-2,440999895E-1","2,567999959E-1","9,511999488E-1"
530,"3,414999843E-1","2,680000067E-1","-2,840000018E-2"
531,"8,115999699E-1","1,197999939E-1","-3,299999982E-3"
532,"7,464999557E-1","-7,199999690E-2","1,733999997E-1"
533,"2,498999983E-1","-1,590999961E-1","-4,818999767E-1"
534,"-1,141700029E0","-2,169999927E-1","-6,873999834E-1"
535,"-1,017199993E0","5,977999568E-1","-1,110499978E0"
536,"-2,219000012E-1","7,026000023E-1","3,386799812E0"
537,"-1,994999945E-1","-6,254999638E-1","1,685999990E0"
538,"3,325999975E-1","-8,904999495E-1","-2,036799908E0"
539,"-1,212999970E-1","1,476999968E-1","1,015100002E0"
540,"1,719999872E-2","3,553999960E-1","-9,537999630E-1"
541,"-1,757099986E0","-1,050300002E0","2,520099878E0"
542,"-2,056499958E0","-5,537999868E-1","2,303400040E0"
543,"-5,105000138E-1","1,019999981E-1","3,689000010E-1"
544,"7,365999818E-1","3,125000000E-1","-6,873999834E-1"
545,"3,021999896E-1","2,820000052E-1","7,489999533E-1"
546,"4,123999774E-1","2,609999850E-2","-1,952999979E-1"
547,"7,024999857E-1","1,686999947E-1","-1,855499983E0"
548,"-8,522999883E-1","3,032000065E-1","1,494699955E0"
549,"6,162999868E-1","3,529999852E-1","5,684999824E-1"
550,"2,113999873E-1","-1,363999993E-1","5,126000047E-1"
551,"-9,171999693E-1","-3,145999908E-1","-3,355000019E-1"
552,"3,222999871E-1","-5,303999782E-1","-2,334999889E-1"
553,"-9,118999839E-1","3,149999976E-1","4,548199654E0"
554,"3,736999929E-1","3,939999938E-1","3,513999879E-1"
555,"7,253999710E-1","1,659999974E-2","1,626299977E0"
556,"3,191999793E-1","-3,589999974E-1","7,849999666E-1"
557,"7,759999633E-1","3,091999888E-1","-6,682999730E-1"
558,"9,249999523E-1","-8,500000089E-2","-5,723999739E-1"
559,"-1,817999929E-1","-2,254499912E0","-6,605000019E0"
560,"-1,265100002E0","-1,077999994E-1","7,419999838E-1"
561,"1,084200025E0","-4,861999750E-1","-3,863999844E-1"
562,"-3,962999880E-1","-1,787000000E-1","5,321999788E-1"
563,"-9,320999980E-1","-2,665999830E-1","-1,179999948E0"
564,"8,037999868E-1","-1,209999993E-2","-1,240700006E0"
565,"9,192999601E-1","1,755999923E-1","4,393999875E-1"
566,"1,363600016E0","-7,285000086E-1","-1,270999908E-1"
567,"-2,265999913E-1","-1,735000014E-1","1,819899917E0"
568,"4,789999872E-2","2,111999989E-1","-7,169999927E-2"
569,"-6,545000076E-1","4,984999895E-1","6,941999793E-1"
570,"-3,731999993E-1","4,108999968E-1","4,651999772E-1"
571,"-1,445799947E0","-7,393999696E-1","1,710299969E0"
572,"9,163999557E-1","2,791999876E-1","-6,994999647E-1"
573,"1,751500010E0","1,019600034E0","-2,439800024E0"
574,"3,820999861E-1","1,086799979E0","3,634999990E0"
575,"5,138999820E-1","-4,930000007E-1","7,160999775E-1"
576,"6,446999907E-1","-3,219999745E-2","-9,044999480E-1"
577,"2,410000004E-2","6,719999760E-2","-1,249099970E0"
578,"1,837199926E0","-9,885999560E-1","-1,002999991E-1"
579,"-1,669999957E-1","2,665999830E-1","1,267899990E0"
580,"8,161999583E-1","7,019999623E-2","-2,558999956E-1"
581,"4,948000014E-1","5,580999851E-1","3,834999800E-1"
582,"-3,700000001E-3","-4,360999763E-1","2,120800018E0"
583,"2,606000006E-1","5,499999970E-3","-1,533000022E-1"
584,"8,396999836E-1","8,689999580E-2","-1,687500000E0"
585,"1,129599929E0","3,547999859E-1","-1,607599974E0"
586,"-2,119999975E-1","1,789999902E-1","7,433999777E-1"
587,"-6,961999536E-1","8,817999959E-1","-1,588499904E0"
588,"-1,649699926E0","-1,624499917E0","7,534999847E0"
589,"-7,823999524E-1","1,463400006E0","8,119999617E-2"
590,"1,110999957E-1","-2,009999901E-1","-1,247799993E0"
591,"-8,938999772E-1","-1,620199919E0","3,235399961E0"
592,"-3,544999957E-1","-1,630000025E-1","2,077600002E0"
593,"1,344999969E-1","1,083500028E0","1,978199959E0"
594,"1,748600006E0","-9,323999882E-1","9,002999663E-1"
595,"-4,749999940E-2","7,695999742E-1","4,416999817E-1"
596,"-2,210000008E-1","2,268999964E-1","2,346999943E-1"
597,"1,547999978E-1","1,023900032E0","2,419999987E-2"
598,"-1,570699930E0","4,513999820E-1","4,501999915E-1"
599,"5,173000097E-1","-3,225999773E-1","-5,575000048E-1"
600,"8,463999629E-1","-4,544000030E-1","-1,372299910E0"
601,"-1,499699950E0","7,319999933E-1","2,879999876E-1"
602,"-1,237499952E0","-1,384999901E-1","-3,984999955E-1"
603,"-1,393199921E0","1,085500002E0","7,629999518E-1"
604,"-2,032199860E0","-9,017999768E-1","2,851799965E0"
605,"-7,738999724E-1","4,490000010E-1","9,669999778E-2"
606,"5,130999684E-1","-4,353999794E-1","-3,770999908E-1"
607,"1,025200009E0","2,403999865E-1","-1,665599942E0"
608,"8,582999706E-1","-4,377000034E-1","7,439000010E-1"
609,"8,896999955E-1","9,899999946E-2","-2,649999969E-2"
610,"-7,967999578E-1","2,549999952E-2","1,016700029E0"
611,"-6,815999746E-1","2,551999986E-1","-3,793999851E-1"
612,"-1,024699926E0","4,299999774E-1","2,474900007E0"
613,"-6,331999898E-1","-1,076900005E0","3,788199902E0"
614,"9,724999666E-1","9,637999535E-1","-1,371199965E0"
615,"-4,824999869E-1","1,030699968E0","-1,117900014E0"
616,"8,761999607E-1","8,123999834E-1","-1,084399939E0"
617,"-8,248999715E-1","3,509999812E-1","1,363600016E0"
618,"-1,008700013E0","-8,280999660E-1","6,104999781E-1"
619,"-1,518299937E0","-7,539999485E-2","2,784999907E-1"
620,"-3,089999855E-1","-4,230000079E-2","4,350000024E-1"
621,"1,770000011E-1","1,714999974E-1","6,915000081E-1"
622,"7,196999788E-1","9,397999644E-1","-8,500999808E-1"
623,"1,106400013E0","5,451999903E-1","-9,971999526E-1"
624,"5,005999804E-1","-9,167000055E-1","7,525999546E-1"
625,"1,072600007E0","-1,989999972E-2","-3,472999930E-1"
626,"5,166000128E-1","-9,124999642E-1","9,695000052E-1"
627,"-8,309999853E-2","-3,080999851E-1","-1,145599961E0"
628,"-1,210999936E-1","-2,017000020E-1","-1,464800000E0"
629,"-1,050899982E0","-1,855999976E-1","1,627399921E0"
630,"-1,311499953E0","5,990999937E-1","4,939000010E-1"
631,"-9,774000049E-1","3,623999953E-1","1,204599977E0"
632,"1,420999914E-1","4,632000029E-1","-1,797000021E-1"
633,"8,398000002E-1","7,703999877E-1","-1,150599957E0"
634,"9,560999870E-1","-5,622000098E-1","-1,680999994E-1"
635,"7,755999565E-1","-2,620000020E-2","-2,372900009E0"
636,"6,111999750E-1","-4,306999743E-1","1,657499909E0"
637,"-5,850999951E-1","-3,939999938E-1","4,257599831E0"
638,"-5,199999735E-2","1,085099936E0","-7,773999572E-1"
639,"5,519999936E-2","8,055999875E-1","8,276999593E-1"
640,"-7,100000046E-3","3,594000041E-1","2,351000011E-1"
641,"8,183999658E-1","1,194999933E0","-4,579999745E-1"
642,"2,654999793E-1","4,754000008E-1","-2,135799885E0"
643,"-2,043000013E-1","1,550400019E0","-9,763999581E-1"
644,"4,445999861E-1","2,454999983E-1","1,069299936E0"
645,"1,069999952E-2","3,490999937E-1","-1,914999932E-1"
646,"-4,593999982E-1","2,630999982E-1","5,157999992E-1"
647,"-8,148999810E-1","3,953999877E-1","4,406999946E-1"
648,"-1,899699926E0","7,479000092E-1","-1,742199898E0"
649,"-1,827999949E0","4,491999745E-1","1,192399979E0"
650,"-7,620000094E-2","2,549999952E-2","-8,682999611E-1"
651,"8,872999549E-1","1,489999983E-2","-6,934999824E-1"
652,"-1,299999952E-1","1,869999990E-2","2,119600058E0"
653,"8,116999865E-1","-3,335999846E-1","4,719999805E-2"
654,"7,728999853E-1","-7,314999700E-1","-1,300999969E-1"
655,"-1,808999926E-1","1,794999987E-1","1,225099921E0"
656,"-1,574399948E0","1,265999973E-1","4,915999770E-1"
657,"-7,728999853E-1","-3,553999960E-1","1,086999997E-1"
658,"6,004999876E-1","5,722000003E-1","-1,445899963E0"
659,"6,843000054E-1","-1,256099939E0","1,724099994E0"
660,"4,232999980E-1","-4,084999859E-1","1,074499965E0"
661,"-9,559999406E-2","9,618999958E-1","5,379999876E-1"
662,"-5,963000059E-1","1,007300019E0","2,531000078E-1"
663,"-9,515999556E-1","-1,239999980E-1","8,109999895E-1"
664,"-7,028999925E-1","-5,139999837E-2","-3,687999845E-1"
665,"-4,144999981E-1","6,276999712E-1","-8,915999532E-1"
666,"-4,699999932E-3","7,906999588E-1","-2,935999930E-1"
667,"9,760999680E-1","-7,734000087E-1","9,942999482E-1"
668,"1,027099967E0","-1,025099993E0","4,023999870E-1"
669,"6,635000110E-1","-1,817999929E-1","6,868999600E-1"
670,"5,611000061E-1","-1,054499984E0","2,387300014E0"
671,"-9,369999915E-2","8,201999664E-1","-4,125999808E-1"
672,"-2,143999934E-1","6,141999960E-1","1,124799967E0"
673,"-2,504000068E-1","5,174999833E-1","6,520000100E-2"
674,"-5,442000031E-1","-4,600000102E-3","8,460000157E-2"
675,"-1,663499951E0","3,149999976E-1","-8,256999850E-1"
676,"-1,452199936E0","1,774999946E-1","9,517999887E-1"
677,"8,091999888E-1","2,360000014E-1","-3,712999821E-1"
678,"6,425999999E-1","-1,913999915E-1","-3,555999994E-1"
679,"5,446000099E-1","-3,949999809E-2","-1,898999959E-1"
680,"7,088999748E-1","-1,158999950E-1","-2,339999974E-1"
681,"-5,029000044E-1","1,678999960E-1","6,969999671E-1"
682,"-8,215000033E-1","-1,999999949E-4","2,260999978E-1"
683,"-1,137399912E0","3,656999767E-1","3,658999801E-1"
684,"3,449999988E-1","-1,999999955E-2","-2,518000007E-1"
685,"5,446999669E-1","-4,280000031E-1","6,410999894E-1"
686,"-2,050999999E-1","-1,014999971E-1","1,008100033E0"
687,"-5,259000063E-1","2,065999955E-1","2,050099850E0"
688,"-3,007999957E-1","4,097999930E-1","5,541999936E-1"
689,"-1,148599982E0","1,120999977E-1","-8,649999648E-2"
690,"-1,054199934E0","-2,619999945E-1","-4,687999785E-1"
691,"-9,595999718E-1","2,259999961E-1","-3,288999796E-1"
692,"-1,139999926E-2","-3,179999813E-2","-9,349999577E-2"
693,"-1,642999947E-1","3,779999912E-1","-2,578999996E-1"
694,"-7,899999619E-3","2,559999935E-2","6,459000111E-1"
695,"6,071000099E-1","5,769999698E-2","3,055000007E-1"
696,"-9,101999998E-1","9,356999993E-1","-1,246999949E-1"
697,"1,017400026E0","1,420000009E-2","-1,171800017E0"
698,"1,651199937E0","-1,093999982E0","-2,137999982E-1"
699,"8,963999748E-1","-3,880999982E-1","-1,129999980E-1"
700,"1,050999984E-1","-1,960999966E-1","1,370599985E0"
701,"8,069999814E-1","2,658999860E-1","-1,405900002E0"
702,"4,287000000E-1","2,094999999E-1","-2,241299868E0"
703,"6,263999939E-1","7,321999669E-1","-1,094599962E0"
704,"-1,263899922E0","-1,554999948E-1","6,915999651E-1"
705,"-1,513299942E0","4,708999991E-1","-1,286499977E0"
706,"-1,725699902E0","3,750000000E-1","1,560699940E0"
707,"9,294999838E-1","1,304000020E-1","-1,156000018E0"
708,"9,029999971E-1","-4,299999680E-3","4,093999863E-1"
709,"1,266699910E0","-6,653000116E-1","-2,219099998E0"
710,"3,828999996E-1","-1,420000009E-2","-3,103999794E-1"
711,"-1,001999974E-1","-1,990000010E-1","6,500999928E-1"
712,"1,234899998E0","-3,725000024E-1","4,998999834E-1"
713,"-2,836999893E-1","3,756999969E-1","8,509999514E-1"
714,"1,650999933E-1","7,563999891E-1","-2,030099869E0"
715,"6,439999491E-2","3,791999817E-1","-1,968799949E0"
716,"-1,387999952E-1","-1,549999975E-2","1,193400025E0"
717,"3,835999966E-1","-2,849999964E-1","2,951000035E-1"
718,"-5,256000161E-1","1,626999974E-1","6,109999865E-2"
719,"-6,999999750E-4","3,959999979E-2","-8,754999638E-1"
720,"-3,140999973E-1","-4,977999926E-1","-3,109999932E-2"
721,"3,319000006E-1","7,874999642E-1","-1,870099902E0"
722,"-2,129999921E-2","-2,547000051E-1","1,852099895E0"
723,"7,548999786E-1","1,736999899E-1","-1,372499943E0"
724,"-5,505999923E-1","2,486999929E-1","-1,886599898E0"
725,"-1,269000024E-1","-4,037999809E-1","1,194800019E0"
726,"9,724999666E-1","-3,500999808E-1","-4,188999832E-1"
727,"5,036999583E-1","-6,699000001E-1","1,370999932E0"
728,"6,408999562E-1","3,366000056E-1","4,789999872E-2"
729,"-3,057000041E-1","7,930999994E-1","1,907999963E-1"
730,"-7,315999866E-1","-4,270000011E-2","5,746999979E-1"
731,"-1,462299943E0","6,099999882E-3","9,849999845E-2"
732,"-1,430999994E0","6,179000139E-1","-4,580999911E-1"
733,"1,231099963E0","-2,134999931E-1","-7,971000075E-1"
734,"3,741999865E-1","5,760999918E-1","5,918999910E-1"
735,"9,689999819E-1","-8,779000044E-1","-4,648000002E-1"
736,"8,409999609E-1","-3,947999775E-1","-3,509999812E-2"
737,"-4,833000004E-1","-3,568999767E-1","1,678499937E0"
738,"3,269000053E-1","3,840999901E-1","5,187999606E-1"
739,"-1,950000040E-2","-1,375299931E0","6,602900028E0"
740,"-3,025999963E-1","-3,999999724E-3","1,107200027E0"
741,"-2,289599895E0","4,265999794E-1","1,391499996E0"
742,"-1,770000011E-1","-1,869999915E-1","-1,270000041E-1"
743,"7,006999850E-1","3,376999795E-1","3,830000013E-2"
744,"1,690899968E0","-1,679999940E-2","1,839499950E0"
745,"1,970000006E-2","3,746999800E-1","-1,973399997E0"
746,"3,596999943E-1","-8,199999481E-2","-2,047299862E0"
747,"7,202000022E-1","-4,210999906E-1","8,819999546E-2"
748,"3,130000085E-2","-1,869999915E-1","1,388999969E-1"
749,"8,664999604E-1","2,559999935E-2","2,387999892E-1"
750,"-5,647000074E-1","3,728999794E-1","5,151000023E-1"
751,"3,878999949E-1","5,849999934E-2","-1,427299976E0"
752,"-1,383899927E0","1,826999933E-1","-1,144999936E-1"
753,"-4,086999893E-1","4,440999925E-1","6,238999963E-1"
754,"7,886999846E-1","-9,349999577E-2","-1,000100017E0"
755,"8,912000060E-1","6,128999591E-1","-1,614399910E0"
756,"2,599999867E-2","-3,285000026E-1","1,042599916E0"
757,"-8,980000019E-2","-8,299999870E-3","5,370999575E-1"
758,"-9,210999608E-1","5,737999678E-1","2,152999938E-1"
759,"5,324000120E-1","-1,017999947E-1","9,096999764E-1"
760,"1,189999953E-1","3,771999776E-1","4,545999765E-1"
761,"1,292999983E-1","-7,660000026E-2","8,772000074E-1"
762,"-1,992999911E-1","-7,400000095E-2","-4,089999795E-1"
763,"-1,538999975E-1","-8,659999967E-1","1,784099936E0"
764,"-2,449999936E-2","-5,536000133E-1","9,502999783E-1"
765,"1,458599925E0","5,073999763E-1","-1,293399930E0"
766,"4,800999761E-1","-1,503600001E0","-1,305699944E0"
767,"1,815999895E-1","1,841999888E-1","-2,057499886E0"
768,"1,745999902E-1","8,419999480E-2","4,986999929E-1"
769,"1,274699926E0","3,664999902E-1","-9,723999500E-1"
770,"-4,721999764E-1","-3,046000004E-1","3,350999951E-1"
771,"5,117999911E-1","-3,990999758E-1","-8,387999535E-1"
772,"-2,089999914E-1","5,999999703E-4","-3,791999817E-1"
773,"4,217999876E-1","6,685999632E-1","-9,672999978E-1"
774,"1,815000027E-1","1,692999899E-1","2,055099964E0"
775,"-5,313000083E-1","-4,426999986E-1","5,006999969E-1"
776,"1,062999964E-1","4,776999950E-1","2,081999928E-1"
777,"5,219999701E-2","3,034999967E-1","-3,003999889E-1"
778,"-2,865999937E-1","-8,391999602E-1","-6,912999749E-1"
779,"-8,924999833E-1","-1,836999953E-1","1,178200006E0"
780,"-1,970000006E-2","-3,450999856E-1","-3,729999810E-2"
781,"-4,284999967E-1","2,036999911E-1","5,446000099E-1"
782,"1,623999923E-1","-2,361999899E-1","1,096699953E0"
783,"-6,755999923E-1","-8,049999923E-2","7,019999623E-1"
784,"-1,049999952E0","9,045999646E-1","-3,610000014E-2"
785,"-1,112699986E0","5,702999830E-1","-1,142699957E0"
786,"-1,253499985E0","-3,319999874E-1","1,868199944E0"
787,"4,287999868E-1","-4,427999854E-1","8,012999892E-1"
788,"6,489999890E-1","-3,461999893E-1","6,284999847E-1"
789,"3,953999877E-1","-5,144999623E-1","4,386999905E-1"
790,"3,962999880E-1","1,909999996E-1","-8,585000038E-1"
791,"-1,012499928E0","-9,300000034E-3","2,207099915E0"
792,"-3,892000020E-1","5,649999902E-2","-2,517499924E0"
793,"1,009299994E0","6,489999592E-2","-1,130599976E0"
794,"4,271999896E-1","-4,532999992E-1","2,112299919E0"
795,"4,749999940E-2","-4,979999736E-2","5,365999937E-1"
796,"2,360999882E-1","-5,267999768E-1","4,940999746E-1"
797,"1,595999897E-1","-5,076000094E-1","2,228299856E0"
798,"2,732000053E-1","-6,839999557E-2","7,683999538E-1"
799,"7,850999832E-1","-2,883999944E-1","4,550999999E-1"
800,"1,230799913E0","1,261999905E-1","-9,851999879E-1"
801,"5,505999923E-1","-6,300000101E-2","6,524999738E-1"
802,"2,087999880E-1","-3,043999970E-1","-3,391000032E-1"
803,"-1,576000005E-1","6,542999744E-1","-2,163999975E-1"
804,"-8,349999785E-1","-1,694999933E-1","-3,322999775E-1"
805,"-1,354900002E0","4,214999974E-1","-8,950999975E-1"
806,"5,453999639E-1","6,459000111E-1","5,841999650E-1"
807,"2,834999859E-1","1,305000037E-1","8,940999508E-1"
808,"1,488199949E0","-7,551999688E-1","1,510999948E-1"
809,"4,851000011E-1","-3,879999816E-1","9,150999784E-1"
810,"6,557999849E-1","3,143000007E-1","-4,208999872E-1"
811,"-1,524999976E0","-1,026999950E-1","2,619299889E0"
812,"-8,093000054E-1","-1,197999939E-1","3,473999798E-1"
813,"1,157999992E0","-8,131999969E-1","1,153999940E-1"
814,"6,901999712E-1","-6,983999610E-1","7,457000017E-1"
815,"6,065999866E-1","-3,050000072E-1","-1,152699947E0"
816,"-5,089999735E-2","4,426999986E-1","-5,164999962E-1"
817,"-1,869099975E0","-1,113199949E0","1,130739975E1"
818,"1,242499948E0","2,080000006E-2","-3,537400007E0"
819,"4,144999981E-1","-4,256999791E-1","2,700099945E0"
820,"-6,340000033E-2","-7,073000073E-1","2,425699949E0"
821,"-1,445400000E0","7,059999704E-1","-2,623999834E0"
822,"-8,503999710E-1","7,192999721E-1","-1,790499926E0"
823,"2,759999968E-2","-1,899999939E-2","7,976999879E-1"
824,"1,195999980E-1","-1,544999927E-1","2,043000013E-1"
825,"-1,426100016E0","-8,558999896E-1","1,712099910E0"
826,"2,175000012E-1","1,072999984E-1","-2,711299896E0"
827,"1,074199915E0","9,605000019E-1","-3,076999903E0"
828,"5,400999784E-1","-5,056999922E-1","2,553900003E0"
829,"-1,099999994E-2","6,305999756E-1","-1,352199912E0"
830,"-7,321000099E-1","4,562999904E-1","-8,357999921E-1"
831,"-1,049499989E0","2,452999949E-1","1,777699947E0"
832,"1,288100004E0","-1,009099960E0","-6,718999743E-1"
833,"3,391000032E-1","-1,499999911E-1","-3,151299953E0"
834,"-2,005399942E0","-6,117999554E-1","3,475699902E0"
835,"2,179800034E0","9,673999548E-1","-2,138499975E0"
836,"-4,044999778E-1","-3,418999910E-1","6,520000100E-1"
837,"-1,394599915E0","1,245299935E0","-1,817799926E0"
838,"-1,059800029E0","-1,253099918E0","2,548599958E0"
839,"8,906999826E-1","1,134999990E0","-1,998699903E0"
840,"-2,899000049E-1","-1,703999937E-1","-6,908000112E-1"
841,"-3,761000037E-1","2,313999981E-1","5,708999634E-1"
842,"-2,907699823E0","-8,310999870E-1","5,550600052E0"
843,"-1,347000003E0","4,447000027E-1","1,175400019E0"
844,"2,052999884E-1","-8,660999537E-1","3,995999813E0"
845,"5,321999788E-1","-2,460999936E-1","-1,342999935E0"
846,"-1,184800029E0","-1,571999937E-1","2,198999971E-1"
847,"-5,164999962E-1","-9,878000021E-1","-1,305799961E0"
848,"-5,769000053E-1","2,427999973E-1","-2,292299986E0"
849,"1,427699924E0","1,327700019E0","-4,461299896E0"
850,"-2,545999885E-1","-5,113999844E-1","2,418099880E0"
851,"1,951399922E0","-6,818999648E-1","-1,366099954E0"
852,"5,460000038E-2","9,431999922E-1","1,621000022E-1"
853,"1,299999952E-1","2,779099941E0","-2,214599848E0"
854,"-1,149999946E-1","7,050999999E-1","-3,389999866E-1"
855,"8,429999650E-2","-2,063999921E-1","2,181599855E0"
856,"4,348999858E-1","2,475999892E-1","1,799899936E0"
857,"1,579800010E0","-1,946000010E-1","4,056999981E-1"
858,"1,140200019E0","3,028999865E-1","-2,335999906E-1"
859,"6,524999738E-1","-2,509000003E-1","-6,517999768E-1"
860,"-7,085999846E-1","6,164999604E-1","2,215899944E0"
861,"-1,714999914E0","-1,693999916E-1","4,475999773E-1"
862,"-1,841799974E0","1,661999971E-1","8,039000034E-1"
863,"9,030000120E-2","1,124300003E0","7,949999720E-2"
864,"2,690199852E0","-2,390499830E0","1,904599905E0"
865,"3,015999794E-1","-3,468999863E-1","-4,975999892E-1"
866,"6,636999846E-1","7,366999984E-1","-1,606999993E0"
867,"-1,295799971E0","-3,071999848E-1","8,481999636E-1"
868,"-1,703699946E0","1,580999941E-1","2,795799971E0"
869,"2,422499895E0","1,133399963E0","-6,398200035E0"
870,"1,486799955E0","3,853999972E-1","-5,672199726E0"
871,"-9,889999777E-2","8,012999892E-1","-1,376899958E0"
872,"4,065999985E-1","-1,748999953E0","4,240299702E0"
873,"1,159600019E0","5,419999734E-2","-2,033900023E0"
874,"2,447299957E0","1,101400018E0","-4,200999737E0"
875,"3,838000000E-1","-9,914000034E-1","2,342299938E0"
876,"-4,432999790E-1","3,526999950E-1","-3,878999949E-1"
877,"-2,945999801E-1","-4,184999764E-1","2,541499853E0"
878,"-3,222999871E-1","-2,245399952E0","2,214200020E0"
879,"1,051999927E0","-2,518999875E-1","-3,421999812E-1"
880,"-4,698999822E-1","-3,050000072E-1","-7,195999622E-1"
881,"9,459999800E-1","-3,852999806E-1","-7,807999849E-1"
882,"3,236999810E-1","-1,984999925E-1","-3,037600040E0"
883,"3,188999891E-1","1,873999983E-1","1,461499929E0"
884,"1,070000008E-1","-7,886999846E-1","2,106999904E-1"
885,"5,066999793E-1","-3,359999880E-2","6,208999753E-1"
886,"-1,180999950E-1","8,129999787E-2","-1,435099959E0"
887,"8,028999567E-1","1,413599968E0","-1,561999917E0"
888,"-4,778999984E-1","-1,313000023E-1","2,045799971E0"
889,"7,580000162E-2","-1,405999959E-1","9,849999547E-1"
890,"2,489999868E-2","5,491999984E-1","-1,915599942E0"
891,"3,028999865E-1","-1,784999967E-1","2,259999886E-2"
892,"2,803999782E-1","-2,277999967E-1","2,084100008E0"
893,"-3,517999947E-1","2,406999916E-1","-2,477200031E0"
894,"3,100999892E-1","-3,520999849E-1","-6,171000004E-1"
895,"8,709999919E-2","-7,705000043E-1","1,182500005E0"
896,"6,366999745E-1","1,014599919E0","-3,747200012E0"
897,"-3,549999744E-2","-2,507999837E-1","3,820999861E-1"
898,"8,774999976E-1","-3,630000055E-1","1,687999964E-1"
899,"-9,779999405E-2","-1,055699944E0","-8,510999680E-1"
900,"-1,117599964E0","2,168999910E-1","1,612999886E-1"
901,"-1,611000001E-1","-1,482999921E-1","-5,231199741E0"
902,"2,149999887E-1","-1,436299920E0","2,717399836E0"
903,"6,543999910E-1","-1,800999939E-1","2,613800049E0"
904,"7,389999926E-2","2,955999970E-1","-4,325999916E-1"
905,"-1,999999955E-2","5,070999861E-1","-1,892399907E0"
906,"8,614999652E-1","-8,495999575E-1","-8,801999688E-1"
907,"-3,197000027E-1","2,891999781E-1","-1,106899977E0"
908,"-6,248999834E-1","3,931999803E-1","4,801999927E-1"
909,"-9,793999791E-1","-1,050599933E0","1,806100011E0"
910,"5,508999825E-1","1,061000004E-1","-2,608299971E0"
911,"-2,300000004E-2","-2,967000008E-1","-3,856000006E-1"
912,"7,907999754E-1","9,168999791E-1","-1,862699986E0"
913,"-3,859999776E-1","6,326000094E-1","-2,974799871E0"
914,"-1,903299928E0","-9,540999532E-1","5,843899727E0"
915,"6,943999529E-1","-3,461000025E-1","1,658800006E0"
916,"1,987999976E-1","2,421999872E-1","-7,703999877E-1"
917,"8,226000071E-1","2,703999877E-1","-1,773299932E0"
918,"8,328999877E-1","5,269999802E-2","1,688599944E0"
919,"-4,099999964E-1","5,162999630E-1","-1,172799945E0"
920,"2,246999890E-1","-5,020999908E-1","4,786999822E-1"
921,"-1,336499929E0","-1,065799952E0","1,163900018E0"
922,"-5,087000132E-1","-1,891999990E-1","9,863999486E-1"
923,"1,068400025E0","3,445000052E-1","-3,236500025E0"
924,"4,277999997E-1","-7,346000075E-1","-2,142999917E-1"
925,"-7,325999737E-1","-1,175499916E0","2,833400011E0"
926,"-1,492799997E0","-9,039999843E-1","2,643800020E0"
927,"-9,949999452E-1","-5,719999671E-1","9,497999549E-1"
928,"-1,350999922E-1","-8,883000016E-1","4,928999841E-1"
929,"-9,669999480E-1","1,251099944E0","1,069000006E0"
930,"-1,550000012E-1","6,101999879E-1","1,815999985E0"
931,"7,884999514E-1","4,502999783E-1","-6,965000033E-1"
932,"1,408900023E0","9,322999716E-1","3,740999997E-1"
933,"1,473899961E0","5,945999622E-1","9,669999480E-1"
934,"1,102999926E0","5,683000088E-1","-3,865000010E-1"
935,"-7,346000075E-1","-1,238899946E0","2,972599983E0"
936,"1,690400004E0","1,925999969E-1","-1,432500005E0"
937,"7,028999925E-1","-6,319999695E-2","-1,635599971E0"
938,"3,704999983E-1","-1,703999937E-1","6,011999846E-1"
939,"-2,799999900E-3","4,256999791E-1","1,291999936E0"
940,"-8,046000004E-1","9,113000035E-1","1,963400006E0"
941,"-4,962999821E-1","1,979999989E-1","1,492999941E-1"
942,"-6,615999937E-1","1,582899928E0","-3,404999971E-1"
943,"-6,154999733E-1","-1,655000001E-1","2,666999996E-1"
944,"-2,569799900E0","6,032999754E-1","-6,901999712E-1"
945,"-9,254999757E-1","2,289000005E-1","2,308199883E0"
946,"-4,069999978E-2","-5,539999902E-2","-2,377699852E0"
947,"6,686999798E-1","1,912999898E-1","9,047999978E-1"
948,"8,297999501E-1","1,252699971E0","-1,865799904E0"
949,"7,119999528E-1","-5,382999778E-1","-1,799999923E-1"
950,"4,065999985E-1","-2,789999843E-1","-2,685899973E0"
951,"-1,226999983E-1","2,203999907E-1","3,542000055E-1"
952,"6,549999714E-1","5,478999615E-1","1,171499968E0"
953,"-1,352699995E0","-1,922999918E-1","2,746599913E0"
954,"-1,150599957E0","-5,124999881E-1","5,549599648E0"
955,"-1,391600013E0","-6,406999826E-1","1,258899927E0"
956,"-1,658699989E0","-4,579999745E-1","5,288999677E-1"
957,"3,619999811E-2","-8,991000056E-1","6,730000019E0"
958,"9,627999663E-1","1,066699982E0","-1,469200015E0"
959,"1,123399973E0","-6,631999612E-1","9,869999439E-2"
960,"-7,663999796E-1","6,832999587E-1","1,132200003E0"
961,"1,037999988E-1","-8,050999641E-1","1,754099965E0"
962,"3,001999855E-1","-1,332999915E-1","3,246999979E-1"
963,"1,569999941E-2","-2,851999998E-1","-1,954599977E0"
964,"-5,677999854E-1","-5,296999812E-1","2,659499884E0"
965,"6,130999923E-1","-6,893000007E-1","6,510999799E-1"
966,"6,269999743E-1","-4,071999788E-1","7,889999449E-2"
967,"-2,275999933E-1","-3,012999892E-1","1,183399916E0"
968,"1,179999951E-2","3,955000043E-1","3,869999945E-1"
969,"8,098999858E-1","1,307699919E0","-4,952300072E0"
970,"-1,292799950E0","-7,526999712E-1","4,646999836E0"
971,"6,448999643E-1","-4,370999932E-1","6,380999684E-1"
972,"7,525999546E-1","-1,412999928E-1","3,709999919E-1"
973,"8,560999632E-1","-7,222999930E-1","1,208899975E0"
974,"1,164999977E-1","-1,342999935E-1","-6,417999864E-1"
975,"1,484999955E-1","-1,995999962E-1","8,726999760E-1"
976,"-5,299000144E-1","2,610999942E-1","-1,514599919E0"
977,"-2,201799870E0","1,682399988E0","5,419999734E-2"
978,"-4,341000021E-1","4,154999852E-1","-3,509999812E-1"
979,"8,299999870E-3","-3,067999780E-1","2,423399925E0"
980,"1,031199932E0","-6,401000023E-1","1,184099913E0"
981,"-7,605999708E-1","-1,534299970E0","1,461699963E0"
982,"6,111999750E-1","2,166999876E-1","5,141999722E-1"
983,"3,586999774E-1","-1,025499940E0","3,162400007E0"
984,"9,684000015E-1","1,500800014E0","-3,707299948E0"
985,"-1,377599955E0","3,734999895E-1","4,553499699E0"
986,"1,385299921E0","5,532999635E-1","-3,404999971E0"
987,"-1,441999912E0","1,256999969E-1","-2,648799896E0"
988,"-1,135800004E0","1,950000040E-2","-9,745000005E-1"
989,"-9,404999614E-1","1,159999967E0","-8,986999989E-1"
990,"1,559999958E-2","-1,120599985E0","4,612499714E0"
991,"1,951699972E0","-1,483199954E0","2,216599941E0"
992,"3,693999946E-1","-2,294999957E-1","-4,207999706E0"
993,"5,342999697E-1","1,061999947E-1","-4,741699696E0"
994,"-1,116099954E0","-7,645999789E-1","2,637999952E-1"
995,"-1,348999977E0","7,499999832E-3","-1,180999950E-1"
996,"7,055000067E-1","-8,339999616E-2","-1,485999972E-1"
997,"3,423999846E-1","-1,064299941E0","1,631999969E0"
998,"8,125999570E-1","-2,330999970E-1","-3,847499847E0"
999,"5,803999901E-1","3,914999962E-1","-2,140799999E0"
1000,"2,202999890E-1","4,142999947E-1","-8,941999674E-1"
1001,"-6,143000126E-1","3,669999838E-1","-4,248600006E0"
1002,"-3,079999983E-2","3,675999939E-1","-2,486500025E0"
1003,"-4,134999812E-1","1,034999967E0","1,795699954E0"
1004,"-2,062799931E0","-1,154500008E0","7,935899734E0"
1005,"6,906999946E-1","-1,091699958E0","3,786700010E0"
1006,"1,766099930E0","3,360999823E-1","-2,258399963E0"
1007,"3,506999910E-1","-1,420000009E-2","-2,125499964E0"
1008,"-6,784999967E-1","-4,484999776E-1","-5,130999684E-1"
1009,"-2,618199825E0","1,667999923E-1","2,066200018E0"
1010,"-1,322999895E-1","-2,266999930E-1","5,751399994E0"
1011,"-1,410999894E-1","-5,009999871E-1","-1,719099998E0"
1012,"3,519999981E-1","-6,204999685E-1","4,974999726E-1"
1013,"-7,335000038E-1","-1,128899932E0","4,106699944E0"
1014,"-3,684999943E-1","1,676999927E-1","-2,660500050E0"
1015,"-1,687699914E0","-6,498000026E-1","5,713500023E0"
1016,"8,386999965E-1","2,368000001E-1","-1,916299939E0"
1017,"1,428799987E0","6,495000124E-1","-9,775999784E-1"
1018,"6,929000020E-1","-1,586000025E-1","7,099999785E-1"
1019,"-1,333999932E-1","-5,266999602E-1","1,522099972E0"
1020,"1,752000004E-1","-1,271700025E0","2,659399986E0"
1021,"-4,616999924E-1","-3,439999744E-2","-1,799399972E0"
1022,"-1,452799916E0","1,366999894E-1","3,031699896E0"
1023,"-1,867000014E-1","4,809999764E-1","-8,533999920E-1"
1024,"3,815999925E-1","4,262999892E-1","-3,690399885E0"
1025,"3,879999816E-1","1,095799923E0","1,284999996E-1"
1026,"-7,288999557E-1","8,499999531E-3","1,207599998E0"
1027,"-7,217999697E-1","-7,699999958E-3","-1,361999989E0"
1028,"-6,062999964E-1","2,236000001E-1","6,808999777E-1"
1029,"3,764999807E-1","-2,757999897E-1","-3,919000030E-1"
1030,"1,216599941E0","-9,128999710E-1","-1,541199923E0"
1031,"-5,823000073E-1","8,873999715E-1","-1,093199968E0"
1032,"-7,669000030E-1","-4,607999921E-1","2,076599836E0"
1033,"-1,487800002E0","3,181000054E-1","4,165000021E-1"
1034,"1,711999923E-1","6,236000061E-1","-1,035899997E0"
1035,"-1,680999994E-1","-7,064999938E-1","2,101399899E0"
1036,"8,461999893E-1","7,379999757E-1","-2,455600023E0"
1037,"-1,377999932E-1","9,848999977E-1","-8,201999664E-1"
1038,"-1,459599972E0","-5,755000114E-1","2,554499865E0"
1039,"4,636999965E-1","1,981000006E-1","-6,209999695E-2"
1040,"2,006799936E0","7,012999654E-1","-4,274699688E0"
1041,"-5,857999921E-1","-1,199999941E-3","3,035399914E0"
1042,"-1,715399981E0","3,445999920E-1","2,586499929E0"
1043,"-6,024999619E-1","8,429999948E-1","-1,090499997E0"
1044,"-5,214999914E-1","-1,703799963E0","1,468699932E0"
1045,"2,998999953E-1","-1,075999960E-1","-1,662899971E0"
1046,"2,228999883E-1","2,118099928E0","4,089999795E-1"
1047,"-2,996199846E0","1,194100022E0","3,718299866E0"
1048,"6,676999927E-1","2,029999904E-2","-2,456000000E-1"
1049,"-6,710999608E-1","-4,223999977E-1","-4,115999699E0"
1050,"-1,561999917E0","6,363999844E-1","3,518599987E0"
1051,"-3,989999741E-2","7,249999791E-2","2,496999949E-1"
1052,"-1,199000001E0","8,599999547E-2","9,089999646E-2"
1053,"6,570000201E-2","5,489999801E-2","9,849999845E-2"
1054,"-8,463999629E-1","3,057000041E-1","6,703999639E-1"
1055,"-3,770000041E-1","1,332499981E0","-7,518999577E-1"
1056,"9,277999997E-1","9,757999778E-1","-1,303000003E-1"
1057,"4,162999988E-1","-2,659999952E-2","2,175000012E-1"
1058,"2,597000003E-1","1,366000026E-1","-3,018999994E-1"
1059,"2,132999897E-1","-1,420999914E-1","-3,610000014E-2"
1060,"6,749999523E-2","1,344999969E-1","2,635999918E-1"
1061,"-4,779999703E-2","1,797000021E-1","2,129999995E-1"
1062,"-1,260000020E-1","2,396999896E-1","-1,379999984E-2"
1063,"-2,152999938E-1","3,598999977E-1","3,799999952E-1"
1064,"1,175999939E-1","5,175999999E-1","2,442999929E-1"
1065,"-2,709999867E-2","-3,364000022E-1","1,225499988E0"
1066,"-1,194399953E0","3,529999778E-2","-8,760000020E-2"
1067,"-1,243600011E0","6,825999618E-1","2,662999928E-1"
1068,"2,924999893E-1","-2,019999921E-1","9,711999893E-1"
1069,"1,700000018E-1","-8,659999818E-2","1,351799965E0"
1070,"9,801999927E-1","4,010999799E-1","1,455999911E-1"
1071,"-4,457999766E-1","-7,150999904E-1","-5,145999789E-1"
1072,"-2,679999918E-2","1,736999899E-1","-5,611999631E-1"
1073,"9,229999781E-2","1,422999948E-1","3,819999844E-2"
1074,"-3,050000072E-1","-6,509999931E-2","-7,962999940E-1"
1075,"5,055999756E-1","-2,921999991E-1","-6,139000058E-1"
1076,"-5,439999700E-2","2,599999867E-2","-1,304000020E-1"
1077,"1,361999959E-1","-2,454999983E-1","3,087999821E-1"
1078,"1,882999986E-1","2,538999915E-1","2,856999934E-1"
1079,"1,483799934E0","8,014000058E-1","-2,446699858E0"
1080,"-3,869999945E-2","-8,136999607E-1","2,056299925E0"
1081,"-4,289999902E-1","-1,128999963E-1","9,539999962E-1"
1082,"-7,504000068E-1","-2,291999906E-1","3,238999844E0"
1083,"8,636999726E-1","3,488000035E-1","-9,727999568E-1"
1084,"-1,421299934E0","-3,718000054E-1","-1,580099940E0"
1085,"1,562999934E-1","3,418999910E-1","-6,859999895E-2"
1086,"5,138999820E-1","-1,067700028E0","2,035399914E0"
1087,"1,198899984E0","4,637999833E-1","1,592399955E0"
1088,"-3,066000044E-1","-5,062000155E-1","-1,692999899E-1"
1089,"-2,956999838E-1","2,006999999E-1","4,491999745E-1"
1090,"-1,563399911E0","6,199999712E-3","1,431299925E0"
1091,"-1,077299953E0","-1,639899969E0","5,033299923E0"
1092,"3,287999928E-1","-5,378999710E-1","-4,117499828E0"
1093,"8,863999844E-1","-2,490999997E-1","-1,968199968E0"
1094,"-1,339599967E0","8,810999990E-1","9,079999477E-2"
1095,"-5,079999939E-2","5,809999704E-1","-4,749999940E-1"
1096,"1,878999919E-1","2,718999982E-1","-5,195999742E-1"
1097,"5,699999630E-3","7,967000008E-1","4,393000007E-1"
1098,"2,476999909E-1","5,225999951E-1","6,667000055E-1"
1099,"1,047999978E0","-8,969999850E-2","9,584999681E-1"
1100,"3,671000004E-1","-3,217999935E-1","1,507999897E-1"
1101,"-3,231000006E-1","3,050000072E-1","1,632699966E0"
1102,"6,747999787E-1","-1,700000018E-1","1,090000011E-2"
1103,"7,662000060E-1","7,362999916E-1","-1,914199948E0"
1104,"-2,049999982E-1","5,285999775E-1","-2,091399908E0"
1105,"-1,726999998E0","-6,449999809E-1","1,087000012E0"
1106,"-2,246500015E0","4,175999761E-1","1,733599901E0"
1107,"-9,960999489E-1","-6,060000062E-1","3,206699848E0"
1108,"-2,252999991E-1","-3,685999811E-1","7,799999714E-1"
1109,"3,625999987E-1","-2,242999971E-1","-1,008000016E0"
1110,"6,269999593E-2","-4,311999977E-1","7,851999998E-1"
1111,"4,869999737E-2","-6,643999815E-1","2,081500053E0"
1112,"1,019299984E0","5,135999918E-1","4,535999894E-1"
1113,"1,489999983E-2","-2,283999920E-1","-1,340000033E-1"
1114,"-4,417999983E-1","8,852999806E-1","-3,100999892E-1"
1115,"-8,719999790E-1","-5,549999699E-2","-5,008000135E-1"
1116,"-2,134999931E-1","4,271999896E-1","-9,970999956E-1"
1117,"1,064899921E0","8,339999914E-1","-2,894999981E-1"
1118,"1,577000022E-1","-1,028800011E0","1,750800014E0"
1119,"-1,507000029E-1","1,180199981E0","-2,039000034E0"
1120,"9,047999978E-1","1,127999946E-1","-7,500999570E-1"
1121,"7,519999892E-2","6,309999824E-1","-2,140100002E0"
1122,"4,244999886E-1","6,039999723E-1","2,852999866E-1"
1123,"-9,271999598E-1","-1,748999953E0","6,680799961E0"
1124,"2,970999777E-1","7,014999986E-1","-2,912400007E0"
1125,"3,701999784E-1","3,650999963E-1","-5,762999654E-1"
1126,"-1,667899966E0","9,747999907E-1","-8,130999804E-1"
1127,"-3,429999948E-2","-8,697999716E-1","3,388099909E0"
1128,"-1,164099932E0","4,259999990E-1","8,610000014E-1"
1129,"4,120000079E-2","-4,366999865E-1","1,122799993E0"
1130,"-2,459999919E-1","4,932999909E-1","-3,458999991E-1"
1131,"-5,845000148E-1","3,594000041E-1","9,897999763E-1"
1132,"-2,757000029E-1","-1,737999916E-1","-6,700000167E-2"
1133,"-4,913999736E-1","3,260999918E-1","-1,090000011E-2"
1134,"-6,453999877E-1","-2,440999895E-1","2,629600048E0"
1135,"-5,751000047E-1","1,643999964E-1","-3,121999800E-1"
1136,"-7,310000062E-2","-3,429999948E-2","-2,167999893E-1"
1137,"6,732999682E-1","3,558999896E-1","-8,100000024E-2"
1138,"-7,524999976E-1","4,670999944E-1","-8,414999843E-1"
1139,"-1,671999991E-1","8,887999654E-1","1,309999973E-1"
1140,"-1,067999959E0","-1,142799973E0","1,400499940E0"
1141,"2,830999792E-1","2,248999923E-1","-1,974099994E0"
1142,"5,609999895E-1","-5,184000134E-1","1,118700027E0"
1143,"8,129999787E-2","-3,375000060E-1","6,304999590E-1"
1144,"-4,676999748E-1","-1,570999920E-1","5,475000143E-1"
1145,"9,736999869E-1","-4,800999761E-1","8,495999575E-1"
1146,"-4,951999784E-1","4,425999820E-1","2,163999975E-1"
1147,"-2,478999943E-1","-1,484999955E-1","1,345600009E0"
1148,"8,179000020E-1","-2,386999875E-1","-1,834999919E0"
1149,"-2,690999806E-1","-3,468999863E-1","3,931999803E-1"
1150,"-1,371699929E0","1,226300001E0","-1,486599922E0"
1151,"-3,646000028E-1","6,184999943E-1","2,206999958E-1"
1152,"2,743999958E-1","-5,956999660E-1","1,125900030E0"
1153,"8,299999870E-3","-6,272999644E-1","-1,277999997E0"
1154,"7,912999988E-1","-5,203999877E-1","9,721999764E-1"
1155,"1,314999908E-1","7,100999951E-1","-5,802999735E-1"
1156,"-1,591999978E-1","2,793000042E-1","-7,358999848E-1"
1157,"-9,170999527E-1","-1,909999996E-1","1,283499956E0"
1158,"8,790999651E-1","-5,116999745E-1","1,510199904E0"
1159,"-5,269999802E-2","7,436999679E-1","5,359999835E-2"
1160,"7,504999638E-1","1,473099947E0","-3,827699900E0"
1161,"-6,574000120E-1","-7,773000002E-1","2,037400007E0"
1162,"1,149199963E0","4,490000010E-2","-4,540800095E0"
1163,"2,089999914E-1","-5,990999937E-1","2,357499838E0"
1164,"-8,937000036E-1","4,998999834E-1","-5,575999618E-1"
1165,"1,248099923E0","-1,753000021E-1","-1,890100002E0"
1166,"1,563599944E0","-1,504999995E0","6,672999859E-1"
1167,"-9,362999797E-1","5,670999885E-1","1,489000022E-1"
1168,"3,255999982E-1","-1,172999963E-1","2,476999998E0"
1169,"1,260499954E0","-1,308099985E0","-1,471499920E0"
1170,"1,313000023E-1","-2,738600016E0","1,163999960E-1"
1171,"-4,774999917E-1","1,456999928E-1","-8,463999629E-1"
1172,"-1,302799940E0","1,658100009E0","2,358999997E-1"
1173,"7,516999841E-1","-2,064699888E0","2,999699831E0"
1174,"-2,996999919E-1","2,558999956E-1","-3,962999880E-1"
1175,"-2,608999908E-1","1,381699920E0","-4,202199936E0"
1176,"-1,381500006E0","-5,216000080E-1","1,248600006E0"
1177,"5,608999729E-1","6,078000069E-1","9,534999728E-1"
1178,"-2,075099945E0","-5,670999885E-1","-7,504999638E-1"
1179,"-2,761999965E-1","5,737999678E-1","9,677999616E-1"
1180,"4,177999794E-1","5,230999589E-1","1,104900002E0"
1181,"-3,909199953E0","1,972499967E0","-2,775399923E0"
1182,"6,372399807E0","-1,650999904E0","-4,179999828E-1"
1183,"-4,529999942E-2","-2,513000071E-1","9,781999588E-1"
1184,"-5,164999962E-1","2,469999939E-1","1,130499959E0"
1185,"1,910699964E0","5,153999925E-1","5,228499889E0"
1186,"-1,871599913E0","-2,599999905E-1","-3,252999783E-1"
1187,"6,985999942E-1","-4,494999945E-1","-9,818999767E-1"
1188,"1,720999926E-1","-1,097899914E0","-4,641999900E-1"
1189,"-1,855999976E-1","1,118099928E0","3,120000064E-1"
1190,"-7,845000029E-1","-7,433999777E-1","1,154099941E0"
1191,"5,410000086E-1","3,396999836E-1","1,451499939E0"
1192,"-1,198599935E0","8,697999716E-1","1,325999945E-1"
1193,"-3,962000012E-1","9,259999543E-2","-4,688999951E-1"
1194,"-1,393000036E-1","-3,579999804E-1","-2,575999796E-1"
1195,"2,092700005E0","-1,690400004E0","1,090700030E0"
1196,"-1,217000008E0","-6,682999730E-1","2,016200066E0"
1197,"5,309000015E-1","7,530000061E-2","-2,037600040E0"
1198,"-1,167400002E0","-4,116999805E-1","-1,000000000E0"
1199,"3,657999933E-1","-1,875000000E-1","-1,785699964E0"
1200,"-6,979999691E-2","4,235000014E-1","1,895599961E0"
1201,"1,167699933E0","-1,000999957E-1","2,276299953E0"
1202,"1,114199996E0","1,140999913E0","-3,069700003E0"
1203,"-8,599999547E-1","-4,309999943E-2","-2,163100004E0"
1204,"9,633999467E-1","-1,228999972E0","2,383899927E0"
1205,"6,334999800E-1","-3,986999989E-1","9,235000014E-1"
1206,"1,290999949E-1","1,538199902E0","-4,185400009E0"
1207,"-1,146999955E0","3,599999845E-1","-9,138000011E-1"
1208,"2,441999912E-1","-3,058999777E-1","-1,350199938E0"
1209,"1,019999944E-2","3,343999982E-1","2,044100046E0"
1210,"6,918999553E-1","6,351000071E-1","-2,898999929E0"
1211,"2,962000072E-1","-2,412000000E-1","-2,416499853E0"
1212,"1,446799994E0","-1,519899964E0","4,303499699E0"
1213,"6,669999659E-2","3,777000010E-1","7,838999629E-1"
1214,"-3,540000021E-1","5,791000128E-1","-2,754199982E0"
1215,"4,898999929E-1","1,574999988E-1","-2,193500042E0"
1216,"-1,360999942E-1","4,883999825E-1","8,786000013E-1"
1217,"1,172699928E0","5,993999839E-1","1,555299997E0"
1218,"-6,712399960E0","-2,699999884E-2","-6,974999905E-1"
1219,"3,502799988E0","-4,240200043E0","-2,629099846E0"
1220,"7,822999954E-1","9,099999443E-3","-1,522499919E0"
1221,"4,955999851E-1","-5,238999724E-1","3,648999929E-1"
1222,"7,180000097E-2","2,924999893E-1","-4,750999808E-1"
1223,"-1,061999917E0","1,700399995E0","2,800000012E-1"
1224,"-2,912999988E-1","-3,578999937E-1","-2,379999869E-2"
1225,"-2,817899942E0","-1,245000005E0","4,007299900E0"
1226,"2,604999840E-1","2,438799858E0","2,610699892E0"
1227,"1,984899998E0","7,236999869E-1","-5,527999997E-1"
1228,"-2,392999887E0","1,815999895E-1","1,225299954E0"
1229,"3,377899885E0","1,153900027E0","2,474400043E0"
1230,"-3,664000034E-1","4,228999913E-1","2,131999880E-1"
1231,"-1,252000034E-1","-5,799999926E-3","-1,484200001E0"
1232,"8,091999888E-1","-5,508999825E-1","-2,511899948E0"
1233,"8,549999595E-1","7,748999596E-1","9,919999540E-2"
1234,"7,127999663E-1","-1,858000010E-1","-2,781999826E0"
1235,"8,436999917E-1","-6,724999547E-1","-9,506999850E-1"
1236,"-6,660999656E-1","-7,714999914E-1","-7,895999551E-1"
1237,"-1,430899978E0","8,949999809E-1","2,551300049E0"
1238,"-1,123000026E0","-6,504999995E-1","5,038999915E-1"
1239,"-7,131999731E-1","2,928999960E-1","-2,134199858E0"
1240,"-1,599900007E0","-2,449999936E-2","-5,203599930E0"
1241,"-8,399999887E-2","-3,473999798E-1","2,908200026E0"
1242,"-3,939999938E-1","-1,131799936E0","2,185600042E0"
1243,"1,438699961E0","2,869999968E-2","1,420599937E0"
1244,"5,400999784E-1","7,989999652E-2","-2,296599865E0"
1245,"-1,656999886E-1","6,482999921E-1","-1,750599980E0"
1246,"1,620800018E0","-3,140100002E0","4,965899944E0"
1247,"-5,203999877E-1","5,148999691E-1","9,689999819E-1"
1248,"2,669999897E-1","8,064000010E-1","-2,212599993E0"
1249,"9,261999726E-1","3,619999886E-1","-2,925599813E0"
1250,"-1,245299935E0","2,522999942E-1","-1,082999945E0"
1251,"1,377900004E0","-4,419999942E-2","2,927700043E0"
1252,"9,779999405E-2","-7,598999739E-1","-3,466999829E-1"
1253,"-2,242599964E0","-3,969999775E-2","-3,080799818E0"
1254,"2,291399956E0","2,777000070E-1","3,960399866E0"
1255,"-1,525799990E0","4,950999916E-1","6,372999549E-1"
1256,"-1,036700010E0","7,290999889E-1","-2,829699993E0"
1257,"2,509999871E-1","-1,394999921E-1","2,094699860E0"
1258,"-1,991999894E-1","1,196499944E0","-2,026799917E0"
1259,"-6,216999888E-1","-1,523800015E0","1,654500008E0"
1260,"-6,219999790E-1","5,949999690E-1","-2,529000044E-1"
1261,"7,599999756E-2","-6,976999640E-1","-4,612599850E0"
1262,"-5,593000054E-1","3,154999912E-1","-1,052199960E0"
1263,"3,267999887E-1","1,276399970E0","1,185799956E0"
1264,"-5,817999840E-1","-4,083999991E-1","-1,747599959E0"
1265,"1,669999957E-2","-2,060000040E-2","-1,580899954E0"
1266,"-6,247999668E-1","5,949999765E-2","-7,695999742E-1"
1267,"5,460000038E-2","4,117999971E-1","-9,341999888E-1"
1268,"-2,097999901E-1","6,933999658E-1","2,216500044E0"
1269,"-1,644999981E-1","1,021999940E-1","-2,791999817E0"
1270,"-4,580000043E-2","1,000999957E-1","-8,162999749E-1"
1271,"7,580000162E-2","1,173699975E0","1,140299916E0"
1272,"5,519999936E-2","3,364000022E-1","-1,913199902E0"
1273,"1,832000017E-1","5,742999911E-1","-4,657999873E-1"
1274,"2,216999978E-1","-4,311999977E-1","4,414499760E0"
1275,"-2,004999965E-1","-5,633000135E-1","-1,800799966E0"
1276,"7,444999814E-1","1,509699941E0","-2,327399969E0"
1277,"8,011999726E-1","-9,439999610E-2","3,170000017E-2"
1278,"-4,629999772E-2","9,024999738E-1","5,277999640E-1"
1279,"-8,464999795E-1","2,970999777E-1","-2,553999901E0"
1280,"4,066999853E-1","-5,320999622E-1","8,219999820E-2"
1281,"6,578999758E-1","1,026999950E-1","2,168799877E0"
1282,"1,336899996E0","8,725999594E-1","-2,893299818E0"
1283,"-1,879999973E-2","5,231999755E-1","-3,051800013E0"
1284,"9,119999409E-2","-6,818999648E-1","-2,129199982E0"
1285,"5,752999783E-1","6,750999689E-1","3,684799910E0"
1286,"-1,645999908E0","4,548999965E-1","-4,138999879E-1"
1287,"-1,036999941E0","-2,869999968E-2","-2,450399876E0"
1288,"1,228999943E-1","-1,364499927E0","5,179100037E0"
1289,"4,648000002E-1","6,028000116E-1","1,656999946E0"
1290,"4,950999916E-1","-1,534999907E-1","-2,858700037E0"
1291,"-8,822999597E-1","-1,197999939E-1","-1,907899976E0"
1292,"1,134799957E0","-4,177999794E-1","5,611099720E0"
1293,"8,639999479E-2","9,735999703E-1","1,786499977E0"
1294,"-1,737999916E-1","2,879999876E-1","-3,679299831E0"
1295,"4,730999768E-1","-2,644000053E-1","-4,485999942E-1"
1296,"-9,989999980E-2","-8,466999531E-1","1,227699995E0"
1297,"1,094200015E0","7,449999452E-2","8,068000078E-1"
1298,"8,057999611E-1","-3,743999898E-1","-1,844299912E0"
1299,"-6,662999988E-1","-7,304999828E-1","-2,953999996E0"
1300,"1,682099938E0","-3,492199898E0","9,441399574E0"
1301,"1,824099898E0","1,081699967E0","5,138700008E0"
1302,"6,164000034E-1","2,540000081E-1","-1,612499952E0"
1303,"-7,468000054E-1","-4,666000009E-1","-2,233500004E0"
1304,"-1,544600010E0","-7,095999718E-1","2,447599888E0"
1305,"-4,124999940E-1","-1,309999943E0","4,979599953E0"
1306,"7,116999626E-1","-4,283999801E-1","1,807999909E-1"
1307,"4,124999940E-1","-1,332999915E-1","-4,066599846E0"
1308,"-9,797999859E-1","-4,687999785E-1","-1,631500006E0"
1309,"2,299000025E0","-1,002699971E0","6,447799683E0"
1310,"3,475099802E0","1,337799907E0","2,704099894E0"
1311,"-7,353000045E-1","3,226999938E-1","-2,135799885E0"
1312,"8,861999512E-1","1,486599922E0","-6,029999852E-1"
1313,"1,602100015E0","1,206300020E0","-1,578699946E0"
1314,"-6,030000001E-2","-1,634999961E-1","5,954999924E-1"
1315,"1,416299939E0","-3,129400015E0","9,158599854E0"
1316,"1,352499962E0","2,131700039E0","1,363899946E0"
1317,"-6,212999821E-1","5,507000089E-1","-1,292599916E0"
1318,"-1,563599944E0","3,810000047E-2","-4,259799957E0"
1319,"6,480000168E-2","9,079999477E-2","-6,241999865E-1"
1320,"4,678999782E-1","1,043200016E0","1,455299973E0"
1321,"2,518000007E-1","5,385000110E-1","1,757900000E0"
1322,"-1,788000017E-1","2,809000015E-1","-3,562599897E0"
1323,"-5,764999986E-1","7,418999672E-1","-3,926699877E0"
1324,"-1,437799931E0","-1,568999887E-1","-2,161499977E0"
1325,"-1,681399941E0","-2,626000047E-1","-3,590799809E0"
1326,"3,014199972E0","-1,281399965E0","5,560899734E0"
1327,"-2,061000019E-1","9,751999974E-1","4,632599831E0"
1328,"-4,139999747E-1","1,017599940E0","2,096799850E0"
1329,"-1,385699987E0","2,987000048E-1","-4,115600109E0"
1330,"-5,731999874E-1","-1,341099977E0","-1,975199938E0"
1331,"1,040000003E-2","-5,949000120E-1","2,786299944E0"
1332,"4,670999944E-1","2,461999953E-1","1,215499997E0"
1333,"2,191200018E0","-1,401000023E-1","1,413399935E0"
1334,"-4,806999862E-1","-2,161999941E-1","-3,047199965E0"
1335,"-9,439999610E-2","-3,649999946E-2","-5,057300091E0"
1336,"-5,162999630E-1","-5,139999986E-1","1,986999959E-1"
1337,"-8,079999685E-2","9,899999499E-1","4,267099857E0"
1338,"-4,159999788E-1","1,245999932E0","-2,041800022E0"
1339,"-1,449399948E0","6,809999943E-1","-5,062200069E0"
1340,"-3,032999933E-1","3,310999870E-1","-3,181799889E0"
1341,"8,089999855E-2","-1,046000004E0","3,390399933E0"
1342,"1,673200011E0","-2,099999972E-2","4,337100029E0"
1343,"-9,319999814E-2","-2,080000006E-2","-2,300600052E0"
1344,"-1,303599954E0","-4,751999974E-1","-4,241699696E0"
1345,"1,196200013E0","-1,827699900E0","4,788499832E0"
1346,"-6,513999701E-1","2,606699944E0","1,634099960E0"
1347,"-1,098299980E0","-1,108999997E-1","8,909999579E-2"
1348,"-1,002300024E0","1,573999971E-1","-5,387000084E0"
1349,"2,154999971E-1","-1,851399899E0","8,932600021E0"
1350,"1,923900008E0","6,988999844E-1","1,006600022E0"
1351,"1,529999916E-2","5,432000160E-1","-3,033200026E0"
1352,"-4,098999798E-1","1,668999940E-1","-3,899899960E0"
1353,"1,394999921E-1","-9,929999709E-1","-4,271000028E-1"
1354,"1,850600004E0","6,279999614E-1","4,993899822E0"
1355,"9,733999968E-1","9,053999782E-1","2,710799932E0"
1356,"-1,497699976E0","1,096899986E0","-4,770100117E0"
1357,"-4,587999880E-1","-9,178999662E-1","-1,664799929E0"
1358,"-2,609999850E-2","1,943999976E-1","2,272999883E-1"
1359,"-7,832999825E-1","-9,752999544E-1","1,156499982E0"
1360,"1,406999946E0","-7,869999856E-2","1,391000003E-1"
1361,"2,589999884E-2","6,304000020E-1","-3,155400038E0"
1362,"1,876000017E-1","-2,531999946E-1","-1,996099949E0"
1363,"-9,674999714E-1","-4,743999839E-1","3,462199926E0"
1364,"-7,267999649E-1","-2,793000042E-1","-1,916099906E0"
1365,"-1,417699933E0","-3,454999924E-1","4,076600075E0"
1366,"2,173999995E-1","5,429999828E-1","-7,401999831E-1"
1367,"2,647999823E-1","1,223500013E0","-2,403699875E0"
1368,"1,577999890E-1","-6,620999575E-1","-3,777099848E0"
1369,"-6,072999835E-1","-1,118999943E-1","-2,541299820E0"
1370,"5,828999877E-1","-1,676999927E-1","2,333499908E0"
1371,"-4,681999981E-1","4,765999913E-1","1,005599976E0"
1372,"-1,857199907E0","1,310000010E-2","-4,577099800E0"
1373,"-1,378899932E0","-7,565000057E-1","-2,638200045E0"
1374,"-3,391000032E-1","-3,477099895E0","9,017999768E-1"
1375,"4,317500114E0","-1,784500003E0","1,574499965E0"
1376,"-3,751799822E0","6,067999601E-1","6,897000074E-1"
1377,"9,993000031E-1","-1,374000013E-1","-4,637999833E-1"
1378,"2,442999840E0","-3,833299875E0","7,256999612E-1"
1379,"4,131199837E0","9,441999793E-1","1,401999891E-1"
1380,"4,672999978E-1","-5,939999819E-1","1,210600019E0"
1381,"-2,333999872E0","1,650699973E0","1,203599930E0"
1382,"3,367599964E0","-1,971199989E0","3,584499836E0"
1383,"-2,525899887E0","-5,727999806E-1","1,456300020E0"
1384,"-6,298999786E-1","-7,724999785E-1","1,108899951E0"
1385,"-4,999999655E-4","5,639999732E-2","4,299999680E-3"
1386,"1,809999906E-2","1,516000032E-1","9,800000116E-3"
1387,"-2,116999924E-1","-1,358999908E-1","3,139999881E-2"
1388,"-7,305999994E-1","-2,123999894E-1","2,611500025E0"
1389,"-1,488000005E-1","-1,557399988E0","-2,549999952E-2"
1390,"6,679999828E-2","-6,379999965E-2","-3,423999846E-1"
1391,"-1,428999901E-1","1,157400012E0","-1,100000024E0"
1392,"1,403999925E0","-1,396899939E0","3,082199812E0"
1393,"-1,259500027E0","-7,289999723E-2","-1,822699904E0"
1394,"-9,357999563E-1","1,879699945E0","-5,532099724E0"
1395,"-1,247799993E0","9,356999993E-1","-1,335099936E0"
1396,"-6,449999660E-2","-1,002099991E0","9,634999633E-1"
1397,"-1,074299932E0","-1,077600002E0","3,540099859E0"
1398,"7,919999957E-2","-1,972000003E-1","1,062199950E0"
1399,"1,074499965E0","-3,375000060E-1","-5,469999790E0"
1400,"8,899999782E-3","-4,325999916E-1","-1,916999966E-1"
1401,"5,496999621E-1","-4,262999892E-1","-4,272399902E0"
1402,"-2,080100060E0","-5,444999933E-1","-3,306900024E0"
1403,"1,467299938E0","-1,744799972E0","4,488199711E0"
1404,"1,574299932E0","2,179999948E-1","2,383199930E0"
1405,"2,217299938E0","-1,356000006E-1","4,925899982E0"
1406,"9,705999494E-1","1,499400020E0","2,428200006E0"
1407,"6,459000111E-1","5,069999769E-2","2,727799892E0"
1408,"1,250000000E-1","8,733999729E-1","3,385999918E0"
1409,"-4,353999794E-1","3,269999847E-2","1,239300013E0"
1410,"1,197199941E0","7,354999781E-1","2,909299850E0"
1411,"-5,899999756E-3","1,568000019E-1","-1,602699995E0"
1412,"-2,773999870E-1","2,369999886E-1","-9,178999662E-1"
1413,"4,936999977E-1","2,709999979E-1","-3,914999962E-1"
1414,"7,947999835E-1","3,502999842E-1","1,607999951E-1"
1415,"1,983399987E0","-8,575999737E-1","1,181999967E-1"
1416,"5,379999802E-2","2,694000006E-1","-8,165999651E-1"
1417,"-2,391999960E-1","-1,680799961E0","3,763299942E0"
1418,"-6,759999692E-2","1,342499971E0","6,312999725E-1"
1419,"-2,908000052E-1","-7,609999925E-2","-5,938999653E-1"
1420,"2,089999989E-2","1,028499961E0","-1,166800022E0"
1421,"4,769999906E-2","-5,855999589E-1","2,433599949E0"
1422,"3,817999959E-1","-1,064999998E-1","2,716999948E-1"
1423,"9,279999882E-2","6,402999759E-1","-1,575999975E0"
1424,"-4,467999935E-1","2,470999956E-1","2,404199839E0"
1425,"1,007499933E0","-9,680999517E-1","7,626999617E-1"
1426,"-1,084999964E-1","-1,276999950E0","-1,133999974E-1"
1427,"4,220999777E-1","4,343999922E-1","-6,344000101E-1"
1428,"-1,189000010E0","2,696999907E-1","-7,623999715E-1"
1429,"9,569999576E-2","-4,102999866E-1","1,066999957E-1"
1430,"8,389999717E-2","4,212999940E-1","3,761000037E-1"
1431,"3,154999912E-1","-2,470999956E-1","1,757999957E-1"
1432,"-7,259999961E-2","-1,886999905E-1","-1,260000002E-2"
1433,"-1,749999970E-1","3,707999885E-1","-1,084999964E-1"
1434,"-5,920000002E-2","-1,501999944E-1","1,488000005E-1"
1435,"4,791999757E-1","-1,049999986E-2","-8,700000122E-3"
1436,"9,420000017E-2","-6,709999591E-2","2,856000066E-1"
1437,"1,550000012E-1","2,529999986E-2","1,208999977E-1"
1438,"2,223999947E-1","-4,235000014E-1","6,469999999E-2"
1439,"4,836999774E-1","-5,715000033E-1","9,879999608E-2"
1440,"-8,399999700E-3","-4,563999772E-1","8,119999617E-2"
1441,"-6,543999910E-1","-1,143999934E0","3,743999958E0"
1442,"5,318999887E-1","4,479999840E-2","1,950000040E-2"
1443,"-9,152999520E-1","6,086999774E-1","-2,870999873E-1"
1444,"5,019999743E-1","1,879999973E-2","1,819999889E-2"
1445,"-1,185999960E-1","2,001999915E-1","-4,661999941E-1"
1446,"6,799999624E-3","-2,569999918E-2","4,360000044E-2"
1447,"3,729999810E-2","2,589999884E-2","2,479999885E-2"
1448,"-1,526099920E0","1,458799958E0","-1,201200008E0"
1449,"-2,280999869E-1","8,020000160E-2","-8,519999683E-2"
1450,"4,989999905E-2","1,599999890E-2","1,922999918E-1"
1451,"2,599000037E-1","-1,990000010E-1","1,907999963E-1"
1452,"-3,720000014E-2","2,859999985E-2","3,399999812E-2"
1453,"1,464999914E-1","8,100000210E-3","1,942999959E-1"
1454,"9,269999713E-2","-6,599999964E-2","4,279999807E-2"
1455,"-1,365000010E-1","7,979999483E-2","5,189999938E-2"
1456,"4,299999680E-3","-3,139999881E-2","8,229999989E-2"
1457,"-3,999999911E-2","3,379999846E-2","9,629999846E-2"
1458,"1,889999956E-2","-3,700000001E-3","9,160000086E-2"
1459,"-1,372999996E-1","1,299999934E-2","-5,519999936E-2"
1460,"-1,449999958E-1","-1,779000014E-1","3,559999913E-2"
1461,"4,490000010E-2","-1,234999970E-1","2,915000021E-1"
1462,"4,202999771E-1","-8,379999548E-2","2,211999893E-1"
1463,"-1,099599957E0","7,290999889E-1","3,312999904E-1"
1464,"-3,700000048E-2","5,590000004E-2","-5,680000037E-2"
1465,"-1,684999913E-1","-6,079999730E-2","1,009999961E-2"
1466,"2,929999866E-2","7,159999758E-2","-4,059999809E-2"
1467,"9,649999440E-2","6,409999728E-2","-3,179999813E-2"
1468,"1,074999943E-1","1,225999966E-1","-4,739999771E-2"
1469,"-2,824999988E-1","9,910000116E-2","-3,519999981E-2"
1470,"3,689999878E-2","-3,549999744E-2","-2,309999987E-2"
1471,"-5,112000108E-1","2,201000005E-1","-8,269999921E-2"
1472,"-1,028999984E-1","2,565999925E-1","-1,222999990E-1"
1473,"1,075999960E-1","-2,604999840E-1","3,413999975E-1"
1474,"-9,499999881E-2","4,449999705E-2","-1,322999895E-1"
1475,"3,360999823E-1","-3,041999936E-1","3,247999847E-1"
1476,"-4,711999893E-1","1,150000002E-2","3,070000000E-2"
1477,"-4,309999943E-2","1,684999913E-1","-4,539999738E-2"
1478,"-4,736999869E-1","-4,494999945E-1","5,878999829E-1"
1479,"1,641999930E-1","-1,542000026E-1","-2,149999887E-2"
1480,"3,119999915E-2","-2,854199886E0","2,982599974E0"
1481,"-1,510599971E0","1,102499962E0","5,712000132E-1"
1482,"-6,201999784E-1","1,122599959E0","-2,428400040E0"
1483,"-4,682999849E-1","-3,037999868E-1","1,064999998E-1"
1484,"-6,473999619E-1","-4,179999828E-1","1,845099926E0"
1485,"6,800999641E-1","-3,729999810E-2","6,669999659E-2"
1486,"-2,126999944E-1","-1,234200001E0","3,000000026E-3"
1487,"8,413999677E-1","3,349999785E-1","-2,645200014E0"
1488,"5,187000036E-1","1,147999987E-1","1,237100005E0"
1489,"-3,655999899E-1","1,298999935E-1","-8,060999513E-1"
1490,"3,003999889E-1","-7,728999853E-1","6,085000038E-1"
1491,"1,425999999E-1","-3,060999811E-1","1,288999915E-1"
1492,"-2,409999967E-1","6,265000105E-1","5,468999743E-1"
1493,"1,063799977E0","-1,218799949E0","1,785799980E0"
1494,"-5,025300026E0","1,168399930E0","4,991199970E0"
1495,"-5,009999871E-2","1,323999912E-1","-3,379999846E-2"
1496,"-6,879999489E-2","-2,489999868E-2","-3,350000083E-2"
1497,"1,134999990E-1","-7,379999757E-2","1,343999952E-1"
1498,"-1,879999973E-2","1,190999970E-1","1,328999996E-1"
1499,"-5,590000004E-2","-2,429999970E-2","1,328999996E-1"
1500,"-4,409999773E-2","6,999999750E-4","1,319999993E-1"
1501,"-7,530000061E-2","4,389999807E-2","-3,529999778E-2"
1502,"9,429999441E-2","-4,289999977E-2","-3,299999982E-2"
1503,"9,499999881E-2","-1,059999969E-2","-3,399999812E-2"
1504,"-5,020000041E-2","1,006999984E-1","1,339000016E-1"
1505,"-4,399999976E-2","-6,000000052E-3","1,322000027E-1"
1506,"-5,689999834E-2","1,435000002E-1","-3,399999812E-2"
1507,"-4,369999841E-2","-2,449999936E-2","-3,390000015E-2"
1508,"-4,329999909E-2","1,017000005E-1","-3,289999813E-2"
1509,"-4,969999939E-2","-4,279999807E-2","1,333999932E-1"
1510,"-3,639999777E-2","-5,929999799E-2","-3,280000016E-2"
1511,"-1,753000021E-1","1,140000001E-1","1,331000030E-1"
1512,"-1,879999973E-2","1,254999936E-1","-3,390000015E-2"
1513,"1,129899979E0","7,100999951E-1","1,294000000E-1"
1514,"-1,562999934E-1","-3,689999878E-2","1,351999938E-1"
1515,"-1,508999914E-1","1,878999919E-1","-3,350000083E-2"
1516,"1,573999971E-1","-3,070000000E-2","1,349999905E-1"
1517,"6,699999794E-3","4,999999655E-4","-3,269999847E-2"
1518,"4,439999908E-2","3,999999899E-4","-3,350000083E-2"
1519,"1,239999942E-2","-4,999999702E-2","-3,130000085E-2"
1520,"-6,199999712E-3","-3,130000085E-2","-3,139999881E-2"
1521,"5,799999926E-3","-2,559999935E-2","-3,189999983E-2"
1522,"-1,377999932E-1","-3,709999844E-2","1,348000020E-1"
1523,"2,549999952E-2","-3,779999912E-2","1,347000003E-1"
1524,"-1,065999940E-1","1,004000008E-1","-3,179999813E-2"
1525,"2,579999901E-2","-5,029999837E-2","-3,159999847E-2"
1526,"1,939999871E-2","4,086000025E-1","1,356000006E-1"
1527,"6,899999920E-3","-1,169999968E-2","-3,229999915E-2"
1528,"-6,000000052E-3","1,383000016E-1","-3,179999813E-2"
1529,"2,559999935E-2","-5,509999767E-2","-3,139999881E-2"
1530,"3,810000047E-2","-4,949999973E-2","1,348000020E-1"
1531,"2,499999851E-2","-4,319999740E-2","-3,179999813E-2"
1532,"1,269999985E-2","-3,109999932E-2","1,347000003E-1"
1533,"2,520000003E-2","-5,549999699E-2","-3,139999881E-2"
1534,"6,599999964E-3","1,322000027E-1","1,347000003E-1"
1535,"6,000000052E-3","-5,649999902E-2","-3,089999966E-2"
1536,"3,170000017E-2","-4,349999875E-2","-3,189999983E-2"
1537,"2,419999987E-2","-4,820000008E-2","1,349999905E-1"
1538,"9,999999747E-5","1,004000008E-1","-1,876999885E-1"
1539,"6,319999695E-2","-4,919999838E-2","-3,229999915E-2"
1540,"6,000000052E-3","-5,649999902E-2","-3,089999966E-2"
1541,"1,229999959E-2","-3,769999743E-2","-3,170000017E-2"
1542,"-5,699999630E-3","-4,319999740E-2","-3,109999932E-2"
1543,"1,879999973E-2","8,829999715E-2","-3,079999983E-2"
1544,"2,579999901E-2","1,199999973E-1","1,345999986E-1"
1545,"3,769999743E-2","1,004000008E-1","-3,159999847E-2"
1546,"2,510000020E-2","8,819999546E-2","1,357000023E-1"
1547,"2,520000003E-2","-6,889999658E-2","-3,089999966E-2"
1548,"6,199999712E-3","-3,150000051E-2","-3,170000017E-2"
1549,"-1,441999972E-1","-7,549999654E-2","-3,039999865E-2"
1550,"5,899999756E-3","-2,539999969E-2","1,347000003E-1"
1551,"3,739999980E-2","-5,649999902E-2","-3,159999847E-2"
1552,"5,059999973E-2","9,479999542E-2","1,349999905E-1"
1553,"-1,506000012E-1","-2,499999851E-2","-3,189999983E-2"
1554,"-1,200000010E-2","-4,309999943E-2","-1,877999902E-1"
1555,"3,189999983E-2","-1,769999973E-2","-3,269999847E-2"
1556,"1,699000001E-1","-3,689999878E-2","1,349000037E-1"
1557,"-2,459999919E-2","-3,089999966E-2","-3,099999949E-2"
1558,"9,999999747E-5","1,269999985E-2","-3,289999813E-2"
1559,"1,909999922E-2","1,572999954E-1","1,336999983E-1"
1560,"-1,249999925E-2","-6,199999712E-3","-3,199999779E-2"
1561,"6,300000008E-3","-1,249999925E-2","1,342999935E-1"
1562,"1,869999990E-2","-1,239999942E-2","-3,260000050E-2"
1563,"3,799999878E-2","-5,899999756E-3","-3,319999948E-2"
1564,"-1,125999987E-1","1,136000007E-1","-3,219999745E-2"
1565,"2,489999868E-2","-1,889999956E-2","1,340999901E-1"
1566,"9,999999747E-5","-1,229999959E-2","-3,219999745E-2"
1567,"-1,136999950E-1","-1,769999973E-2","-3,289999813E-2"
1568,"1,695999950E-1","-1,229999959E-2","-3,240000084E-2"
1569,"-1,315999925E-1","-3,130000085E-2","1,344999969E-1"
1570,"4,399999976E-2","8,789999783E-2","-3,130000085E-2"
1571,"3,759999946E-2","-1,380999982E-1","-2,850000001E-2"
1572,"3,999999899E-4","-1,159999985E-2","1,402999908E-1"
1573,"1,869999990E-2","1,252000034E-1","-2,579999901E-2"
1574,"6,199999712E-3","-6,199999712E-3","-2,669999935E-2"
1575,"1,310000010E-2","-2,379999869E-2","-2,609999850E-2"
1576,"2,529999986E-2","4,999999655E-4","-2,749999985E-2"
1577,"1,879999973E-2","1,249999925E-2","-2,779999934E-2"
1578,"-9,989999980E-2","-2,379999869E-2","-2,699999884E-2"
1579,"-1,440999955E-1","1,321000010E-1","-2,599999867E-2"
1580,"2,489999868E-2","-1,279999968E-2","-2,679999918E-2"
1581,"6,399999838E-3","-1,850000024E-2","1,403999925E-1"
1582,"3,189999983E-2","1,079999954E-1","1,412999928E-1"
1583,"1,632999927E-1","1,257999986E-1","1,410000026E-1"
1584,"1,939999871E-2","-9,299999475E-2","-2,989999950E-2"
1585,"2,510000020E-2","3,779999912E-2","1,375999898E-1"
1586,"-1,438999921E-1","3,209999949E-2","1,380999982E-1"
1587,"5,700000003E-2","1,394999921E-1","1,393000036E-1"
1588,"2,510000020E-2","-3,130000085E-2","-2,599999867E-2"
1589,"2,499999851E-2","6,199999712E-3","-2,769999951E-2"
1590,"3,799999878E-2","1,326999962E-1","-2,659999952E-2"
1591,"4,999999655E-4","-9,939999878E-2","-2,919999883E-2"
1592,"-1,809999906E-2","-1,169999968E-2","-3,170000017E-2"
1593,"-5,599999800E-3","-2,419999987E-2","1,349999905E-1"
1594,"4,999999655E-4","1,194999963E-1","1,351999938E-1"
1595,"-1,289999951E-2","-6,849999726E-2","-2,999999933E-2"
1596,"-1,623999923E-1","1,262999922E-1","-3,150000051E-2"
1597,"1,564999968E-1","8,720000088E-2","1,362999976E-1"
1598,"0,000000000E0","-2,499999851E-2","-3,179999813E-2"
1599,"-6,799999624E-3","-3,209999949E-2","1,351999938E-1"
1600,"-3,109999932E-2","1,131999940E-1","1,361999959E-1"
1601,"-1,559000015E-1","-1,613999903E-1","-2,669999935E-2"
1602,"-1,061000004E-1","6,699999794E-3","1,369999945E-1"
1603,"-9,999999404E-2","-5,899999756E-3","-2,939999849E-2"
1604,"4,429999739E-2","6,499999668E-3","-2,929999866E-2"
1605,"4,539999738E-2","1,199999941E-3","1,374000013E-1"
1606,"6,279999763E-2","-6,099999882E-3","-2,960000001E-2"
1607,"6,329999864E-2","6,699999794E-3","-2,999999933E-2"
1608,"2,066999972E-1","1,850000024E-2","-2,989999950E-2"
1609,"6,260000169E-2","0,000000000E0","-2,979999967E-2"
1610,"1,889999956E-2","-1,315999925E-1","-2,889999934E-2"
1611,"-1,182999983E-1","3,189999983E-2","-2,979999967E-2"
1612,"3,779999912E-2","6,300000008E-3","-2,909999900E-2"
1613,"5,069999769E-2","2,549999952E-2","1,365000010E-1"
1614,"5,009999871E-2","-6,300000008E-3","-2,919999883E-2"
1615,"-8,709999919E-2","1,310000010E-2","-3,039999865E-2"
1616,"6,309999526E-2","6,499999668E-3","-2,999999933E-2"
1617,"-1,180999950E-1","1,329999976E-2","1,372999996E-1"
1618,"3,150000051E-2","-1,860000007E-2","-2,819999866E-2"
1619,"2,569999918E-2","-5,699999630E-3","-2,829999849E-2"
1620,"3,830000013E-2","-1,819999889E-2","-2,840000018E-2"
1621,"6,329999864E-2","-1,829999872E-2","-2,929999866E-2"
1622,"-1,118000001E-1","7,999999798E-4","-2,919999883E-2"
1623,"-1,132999957E-1","6,000000052E-3","-2,929999866E-2"
1624,"3,150000051E-2","1,889999956E-2","-2,919999883E-2"
1625,"5,719999969E-2","1,310000010E-2","-2,999999933E-2"
1626,"3,779999912E-2","1,260000002E-2","-2,929999866E-2"
1627,"-1,122999936E-1","3,999999899E-4","-2,919999883E-2"
1628,"5,700000003E-2","1,919999905E-2","-3,009999916E-2"
1629,"4,449999705E-2","1,919999905E-2","-2,969999984E-2"
1630,"4,429999739E-2","1,899999939E-2","-2,969999984E-2"
1631,"-1,255999953E-1","3,130000085E-2","-2,950000018E-2"
1632,"6,369999796E-2","-5,399999674E-3","1,368999928E-1"
1633,"3,229999915E-2","-3,680000082E-2","1,389999986E-1"
1634,"5,709999800E-2","1,260000020E-1","-2,869999968E-2"
1635,"-9,979999810E-2","1,385999918E-1","1,375000030E-1"
1636,"8,289999515E-2","1,331000030E-1","1,368999928E-1"
1637,"-9,369999915E-2","-1,878999919E-1","-2,889999934E-2"
1638,"1,929999888E-2","-3,720000014E-2","1,394999921E-1"
1639,"-1,067999974E-1","-1,979999989E-2","-2,879999951E-2"
1640,"4,979999736E-2","-1,279999968E-2","-2,899999917E-2"
1641,"5,119999871E-2","-2,410000004E-2","1,378999949E-1"
1642,"3,759999946E-2","1,002999991E-1","1,393999904E-1"
1643,"5,009999871E-2","-4,389999807E-2","-2,799999900E-2"
1644,"-1,001999974E-1","-3,119999915E-2","1,379999965E-1"
1645,"1,999999955E-2","-5,299999844E-3","1,384999901E-1"
1646,"-8,810000122E-2","-6,300000101E-2","-2,799999900E-2"
1647,"2,609999850E-2","-4,309999943E-2","1,393999904E-1"
1648,"-1,194999963E-1","-5,040000007E-2","-2,740000002E-2"
1649,"3,759999946E-2","1,191999987E-1","-2,779999934E-2"
1650,"3,749999776E-2","1,441999972E-1","-2,859999985E-2"
1651,"7,609999925E-2","-4,939999804E-2","1,378999949E-1"
1652,"5,059999973E-2","-3,099999949E-2","1,381999999E-1"
1653,"2,060000040E-2","-5,489999801E-2","-2,659999952E-2"
1654,"2,579999901E-2","-4,329999909E-2","-2,719999850E-2"
1655,"-1,057999954E-1","-5,559999868E-2","-2,769999951E-2"
1656,"3,159999847E-2","-5,619999766E-2","-2,699999884E-2"
1657,"5,079999939E-2","-3,700000048E-2","1,383000016E-1"
1658,"-1,006999984E-1","1,000999957E-1","1,387999952E-1"
1659,"4,459999874E-2","6,969999522E-2","1,402999908E-1"
1660,"4,509999976E-2","-6,159999967E-2","-2,730000019E-2"
1661,"3,830000013E-2","1,197999939E-1","-2,779999934E-2"
1662,"5,040000007E-2","-6,879999489E-2","-2,719999850E-2"
1663,"-1,056999937E-1","-6,809999794E-2","-2,719999850E-2"
1664,"4,409999773E-2","1,005999967E-1","-2,740000002E-2"
1665,"5,079999939E-2","9,479999542E-2","-2,740000002E-2"
1666,"4,459999874E-2","-6,199999899E-2","-2,719999850E-2"
1667,"3,299999982E-2","-6,109999865E-2","1,397999972E-1"
1668,"2,559999935E-2","-7,479999959E-2","-2,609999850E-2"
1669,"3,810000047E-2","1,008000001E-1","-2,719999850E-2"
1670,"-1,367999911E-1","8,280000091E-2","-2,589999884E-2"
1671,"-1,193000004E-1","1,191999987E-1","-2,779999934E-2"
1672,"4,459999874E-2","-5,579999834E-2","1,392000020E-1"
1673,"4,339999706E-2","8,739999682E-2","-2,689999901E-2"
1674,"2,659999952E-2","-7,379999757E-2","1,404999942E-1"
1675,"3,130000085E-2","1,128999963E-1","-2,740000002E-2"
1676,"5,099999905E-2","9,499999881E-2","-2,749999985E-2"
1677,"4,439999908E-2","6,949999928E-2","-2,630000003E-2"
1678,"-1,252999902E-1","-4,999999702E-2","-2,719999850E-2"
1679,"2,549999952E-2","1,008000001E-1","-2,669999935E-2"
1680,"5,040000007E-2","2,261999995E-1","-2,649999969E-2"
1681,"4,499999806E-2","1,201999933E-1","-2,809999883E-2"
1682,"6,969999522E-2","1,008999944E-1","-2,829999849E-2"
1683,"5,749999732E-2","-5,539999902E-2","-2,789999917E-2"
1684,"-1,314999908E-1","-6,250000000E-2","-2,649999969E-2"
1685,"3,139999881E-2","8,150000125E-2","-2,630000003E-2"
1686,"4,449999705E-2","-5,579999834E-2","-2,740000002E-2"
1687,"4,329999909E-2","-1,919999905E-2","1,380999982E-1"
1688,"3,229999915E-2","1,013000011E-1","-2,699999884E-2"
1689,"2,679999918E-2","-5,489999801E-2","1,397999972E-1"
1690,"5,069999769E-2","8,819999546E-2","-2,719999850E-2"
1691,"-1,001999974E-1","-4,369999841E-2","-2,829999849E-2"
1692,"5,700000003E-2","-4,329999909E-2","-2,829999849E-2"
1693,"2,630000003E-2","-3,659999743E-2","1,392000020E-1"
1694,"-9,369999915E-2","-4,979999736E-2","-2,829999849E-2"
1695,"-1,244999990E-1","-6,179999933E-2","-2,679999918E-2"
1696,"3,179999813E-2","-7,479999959E-2","-2,630000003E-2"
1697,"4,339999706E-2","-3,179999813E-2","-2,819999866E-2"
1698,"4,509999976E-2","9,519999474E-2","-2,730000019E-2"
1699,"-1,309999973E-1","6,979999691E-2","-2,569999918E-2"
1700,"5,079999939E-2","1,261000037E-1","-2,850000001E-2"
1701,"3,729999810E-2","-5,669999868E-2","-2,719999850E-2"
1702,"6,920000166E-2","-6,260000169E-2","-2,809999883E-2"
1703,"4,429999739E-2","1,008000001E-1","-2,740000002E-2"
1704,"3,039999865E-2","9,319999814E-2","-2,669999935E-2"
1705,"-1,119999960E-1","-6,179999933E-2","1,393999904E-1"
1706,"5,659999698E-2","1,005999967E-1","1,387999952E-1"
1707,"3,099999949E-2","-2,529999986E-2","1,386999935E-1"
1708,"6,319999695E-2","-8,739999682E-2","-2,699999884E-2"
1709,"-1,131999940E-1","1,127000004E-1","-2,779999934E-2"
1710,"-1,191999987E-1","8,779999614E-2","-2,669999935E-2"
1711,"-8,850000054E-2","-7,599999756E-2","-2,759999968E-2"
1712,"7,530000061E-2","1,002999991E-1","-2,850000001E-2"
1713,"5,009999871E-2","-4,389999807E-2","-2,799999900E-2"
1714,"1,764999926E-1","8,850000054E-2","1,404999942E-1"
1715,"3,879999742E-2","-4,910000041E-2","1,392000020E-1"
1716,"-1,112999991E-1","9,559999406E-2","-2,730000019E-2"
1717,"6,889999658E-2","6,319999695E-2","-2,689999901E-2"
1718,"3,859999776E-2","9,499999881E-2","-2,699999884E-2"
1719,"5,700000003E-2","3,999999899E-4","1,369999945E-1"
1720,"-9,420000017E-2","1,190999970E-1","-2,869999968E-2"
1721,"5,619999766E-2","-9,339999408E-2","-2,649999969E-2"
1722,"4,479999840E-2","-4,309999943E-2","-2,789999917E-2"
1723,"-1,001999974E-1","-1,239999942E-2","-2,919999883E-2"
1724,"-9,969999641E-2","-2,449999936E-2","-2,889999934E-2"
1725,"3,799999878E-2","-1,840000041E-2","1,381999999E-1"
1726,"-1,119999960E-1","-1,179999951E-2","-2,879999951E-2"
1727,"-1,437999904E-1","-3,089999966E-2","-2,709999867E-2"
1728,"4,619999975E-2","9,629999846E-2","-2,730000019E-2"
1729,"5,059999973E-2","7,580000162E-2","1,397999972E-1"
1730,"4,409999773E-2","5,099999905E-2","-2,559999935E-2"
1731,"5,139999837E-2","5,719999969E-2","-2,609999850E-2"
1732,"-1,062999964E-1","3,999999899E-4","-2,369999886E-2"
1733,"1,249999925E-2","-3,139999881E-2","-2,089999989E-2"
1734,"3,199999779E-2","-3,039999865E-2","1,449999958E-1"
1735,"-1,059999987E-1","1,075999960E-1","-2,139999904E-2"
1736,"3,199999779E-2","-3,049999848E-2","1,449999958E-1"
1737,"6,939999759E-2","-3,099999949E-2","-2,909999900E-2"
1738,"5,719999969E-2","-8,049999923E-2","1,395999938E-1"
1739,"2,609999850E-2","7,000000030E-2","-2,569999918E-2"
1740,"2,510000020E-2","8,150000125E-2","-2,609999850E-2"
1741,"4,439999908E-2","-8,109999448E-2","1,401000023E-1"
1742,"5,779999867E-2","-9,829999506E-2","-2,639999986E-2"
1743,"-9,269999713E-2","7,479999959E-2","-2,719999850E-2"
1744,"4,380000010E-2","1,065999940E-1","-2,759999968E-2"
1745,"6,279999763E-2","2,194999903E-1","-2,669999935E-2"
1746,"5,680000037E-2","-9,979999810E-2","-2,630000003E-2"
1747,"-9,899999946E-2","-7,389999926E-2","-2,730000019E-2"
1748,"1,239999942E-2","-1,193999946E-1","-2,389999852E-2"
1749,"-1,257999986E-1","5,629999936E-2","-2,529999986E-2"
1750,"6,260000169E-2","6,909999996E-2","-2,689999901E-2"
1751,"4,409999773E-2","6,929999590E-2","-2,630000003E-2"
1752,"3,139999881E-2","-8,150000125E-2","-2,609999850E-2"
1753,"4,339999706E-2","-1,065999940E-1","1,410999894E-1"
1754,"-1,246999949E-1","6,969999522E-2","1,406999975E-1"
1755,"-8,150000125E-2","6,929999590E-2","-2,740000002E-2"
1756,"5,189999938E-2","3,260000050E-2","1,362999976E-1"
1757,"5,680000037E-2","2,999999851E-4","-2,960000001E-2"
1758,"6,949999928E-2","-1,829999872E-2","-2,950000018E-2"
1759,"5,669999868E-2","8,799999952E-2","-2,740000002E-2"
1760,"1,899999939E-2","-6,870000064E-2","1,405999959E-1"
1761,"-9,420000017E-2","-6,899999827E-2","-2,759999968E-2"
1762,"5,020000041E-2","-7,530000061E-2","-2,699999884E-2"
1763,"3,830000013E-2","-7,459999621E-2","1,400000006E-1"
1764,"3,130000085E-2","-5,649999902E-2","-2,689999901E-2"
1765,"3,170000017E-2","6,920000166E-2","-2,589999884E-2"
1766,"4,429999739E-2","6,329999864E-2","1,404999942E-1"
1767,"-1,118999943E-1","-8,689999580E-2","-2,639999986E-2"
1768,"-9,919999540E-2","6,979999691E-2","-2,679999918E-2"
1769,"-1,127000004E-1","-8,749999851E-2","1,402999908E-1"
1770,"3,810000047E-2","4,399999976E-2","-2,510000020E-2"
1771,"3,819999844E-2","-8,729999512E-2","-2,609999850E-2"
1772,"3,759999946E-2","8,150000125E-2","1,401000023E-1"
1773,"2,679999918E-2","-6,109999865E-2","1,400000006E-1"
1774,"2,539999969E-2","-8,129999787E-2","-2,579999901E-2"
1775,"6,309999526E-2","8,829999715E-2","-2,759999968E-2"
1776,"2,559999935E-2","9,459999949E-2","-2,649999969E-2"
1777,"3,810000047E-2","-8,109999448E-2","1,402999908E-1"
1778,"1,329999976E-2","-6,830000132E-2","-2,589999884E-2"
1779,"-1,319999993E-1","-8,799999952E-2","-2,559999935E-2"
1780,"3,319999948E-2","-4,219999909E-2","1,391000003E-1"
1781,"-8,100000024E-2","-1,200000010E-2","-2,989999950E-2"
1782,"-9,369999915E-2","1,257999986E-1","-2,889999934E-2"
1783,"5,609999970E-2","-2,529999986E-2","-2,879999951E-2"
1784,"2,479999885E-2","-3,779999912E-2","-2,730000019E-2"
1785,"4,499999806E-2","1,264999956E-1","1,383000016E-1"
1786,"-7,539999485E-2","-1,889999956E-2","-2,989999950E-2"
1787,"4,959999770E-2","-2,549999952E-2","-2,859999985E-2"
1788,"-1,061999947E-1","-5,599999800E-2","-2,759999968E-2"
1789,"-1,127000004E-1","6,929999590E-2","-2,630000003E-2"
1790,"6,309999526E-2","5,709999800E-2","-2,649999969E-2"
1791,"3,769999743E-2","-1,004000008E-1","1,410000026E-1"
1792,"3,739999980E-2","6,250000000E-2","-2,579999901E-2"
1793,"4,369999841E-2","6,250000000E-2","-2,599999867E-2"
1794,"3,209999949E-2","-1,057999954E-1","-2,520000003E-2"
1795,"1,860000007E-2","5,619999766E-2","-2,489999868E-2"
1796,"4,409999773E-2","5,049999803E-2","-2,559999935E-2"
1797,"4,429999739E-2","6,329999864E-2","1,404999942E-1"
1798,"5,719999969E-2","6,300000101E-2","-2,649999969E-2"
1799,"5,099999905E-2","-9,869999439E-2","-2,609999850E-2"
1800,"3,810000047E-2","-9,359999746E-2","-2,589999884E-2"
1801,"3,830000013E-2","5,729999766E-2","-2,559999935E-2"
1802,"5,099999905E-2","-9,349999577E-2","-2,630000003E-2"
1803,"-9,459999949E-2","4,969999939E-2","-2,620000020E-2"
1804,"-1,116999984E-1","7,639999688E-2","1,400000006E-1"
1805,"1,229999959E-2","8,760000020E-2","-2,579999901E-2"
1806,"3,229999915E-2","-8,679999411E-2","-2,589999884E-2"
1807,"5,020000041E-2","6,889999658E-2","1,401000023E-1"
1808,"-9,380000085E-2","-8,139999956E-2","-2,719999850E-2"
1809,"3,209999949E-2","7,599999756E-2","-2,609999850E-2"
1810,"-1,061000004E-1","-9,369999915E-2","-2,630000003E-2"
1811,"6,300000101E-2","5,049999803E-2","-2,620000020E-2"
1812,"6,599999964E-3","3,799999878E-2","-2,369999886E-2"
1813,"3,759999946E-2","-1,064999998E-1","-2,529999986E-2"
1814,"3,849999979E-2","7,000000030E-2","-2,609999850E-2"
1815,"5,629999936E-2","5,649999902E-2","-2,630000003E-2"
1816,"4,490000010E-2","-9,939999878E-2","-2,589999884E-2"
1817,"-1,255999953E-1","6,879999489E-2","-2,579999901E-2"
1818,"4,989999905E-2","6,879999489E-2","-2,649999969E-2"
1819,"3,839999810E-2","-1,370999962E-1","-2,410000004E-2"
1820,"3,170000017E-2","6,300000101E-2","-2,559999935E-2"
1821,"5,059999973E-2","5,659999698E-2","1,405999959E-1"
1822,"-1,008000001E-1","-1,004000008E-1","-2,620000020E-2"
1823,"4,429999739E-2","-9,349999577E-2","-2,609999850E-2"
1824,"3,849999979E-2","7,000000030E-2","-2,609999850E-2"
1825,"6,989999861E-2","5,119999871E-2","1,401000023E-1"
1826,"5,099999905E-2","1,199999973E-1","1,383000016E-1"
1827,"1,960000023E-2","9,479999542E-2","-2,630000003E-2"
1828,"-1,441999972E-1","5,029999837E-2","1,421999931E-1"
1829,"7,629999518E-2","8,320000023E-2","-2,789999917E-2"
1830,"3,159999847E-2","-6,250000000E-2","-2,669999935E-2"
1831,"4,479999840E-2","9,499999881E-2","1,393999904E-1"
1832,"5,700000003E-2","1,009999961E-1","1,386999935E-1"
1833,"1,310000010E-2","-1,061000004E-1","-2,439999953E-2"
1834,"-1,052999943E-1","-9,209999442E-2","-2,639999986E-2"
1835,"-1,065999940E-1","7,519999892E-2","-2,669999935E-2"
1836,"4,389999807E-2","-7,530000061E-2","-2,669999935E-2"
1837,"3,240000084E-2","6,369999796E-2","1,409000009E-1"
1838,"-1,309999973E-1","3,089999966E-2","1,424999982E-1"
1839,"3,280000016E-2","-5,509999767E-2","1,395999938E-1"
1840,"5,139999837E-2","2,649999969E-2","-2,489999868E-2"
1841,"5,020000041E-2","7,519999892E-2","-2,669999935E-2"
1842,"1,329999976E-2","-6,830000132E-2","-2,589999884E-2"
1843,"4,439999908E-2","4,399999976E-2","-1,823000014E-1"
1844,"3,859999776E-2","1,768999994E-1","-2,419999987E-2"
1845,"-8,709999919E-2","-1,120999977E-1","-2,620000020E-2"
1846,"-1,185999960E-1","-1,128999963E-1","-2,510000020E-2"
1847,"1,989999972E-2","6,369999796E-2","1,413999945E-1"
1848,"-9,959999472E-2","3,839999810E-2","-2,559999935E-2"
1849,"3,130000085E-2","-1,315999925E-1","-2,410000004E-2"
1850,"3,139999881E-2","-1,004000008E-1","-2,539999969E-2"
1851,"-1,193000004E-1","4,399999976E-2","-2,510000020E-2"
1852,"3,130000085E-2","3,779999912E-2","-2,459999919E-2"
1853,"3,879999742E-2","8,899999410E-2","-2,679999918E-2"
1854,"1,919999905E-2","1,321000010E-1","-2,749999985E-2"
1855,"-1,128999963E-1","2,520000003E-2","-2,459999919E-2"
1856,"3,119999915E-2","6,099999882E-3","-2,329999954E-2"
1857,"2,569999918E-2","6,999999750E-3","-2,309999987E-2"
1858,"-1,123999953E-1","4,399999976E-2","-2,529999986E-2"
1859,"3,070000000E-2","5,499999970E-3","-2,329999954E-2"
1860,"3,799999878E-2","3,159999847E-2","1,419999897E-1"
1861,"-9,449999779E-2","1,829999872E-2","-2,489999868E-2"
1862,"5,700000003E-2","2,569999918E-2","-2,499999851E-2"
1863,"-1,190999970E-1","6,399999838E-3","-2,349999920E-2"
1864,"3,799999878E-2","-1,375999898E-1","1,424999982E-1"
1865,"4,999999702E-2","-9,999999747E-5","1,428999901E-1"
1866,"2,549999952E-2","3,999999899E-4","-2,279999852E-2"
1867,"7,050000131E-2","8,229999989E-2","-2,769999951E-2"
1868,"3,830000013E-2","-3,700000048E-2","-2,779999934E-2"
1869,"5,029999837E-2","1,260000002E-2","-2,969999984E-2"
1870,"3,720000014E-2","1,829999872E-2","-2,400000021E-2"
1871,"3,729999810E-2","-3,999999899E-4","1,433999985E-1"
1872,"-1,130999997E-1","2,489999868E-2","-2,449999936E-2"
1873,"-1,061000004E-1","6,899999920E-3","-2,400000021E-2"
1874,"5,020000041E-2","1,260000002E-2","-2,429999970E-2"
1875,"5,049999803E-2","1,909999922E-2","-2,449999936E-2"
1876,"5,119999871E-2","7,499999832E-3","1,424999982E-1"
1877,"3,769999743E-2","9,999999747E-5","-2,329999954E-2"
1878,"-1,190999970E-1","9,999999747E-5","-2,329999954E-2"
1879,"4,449999705E-2","4,389999807E-2","1,412999928E-1"
1880,"3,769999743E-2","1,260000002E-2","1,428000033E-1"
1881,"-9,910000116E-2","-1,090000011E-2","1,430999935E-1"
1882,"3,799999878E-2","6,699999794E-3","1,429999918E-1"
1883,"2,529999986E-2","1,929999888E-2","-2,359999903E-2"
1884,"-9,309999645E-2","1,999999955E-2","-2,499999851E-2"
1885,"3,769999743E-2","1,260000002E-2","-2,379999869E-2"
1886,"3,819999844E-2","6,999999750E-4","-2,329999954E-2"
1887,"-1,247999966E-1","6,899999920E-3","1,432999969E-1"
1888,"-1,245999932E-1","-1,139999926E-2","-2,259999886E-2"
1889,"-1,187999994E-1","-1,200000010E-2","-2,269999869E-2"
1890,"-1,190999970E-1","1,889999956E-2","-2,410000004E-2"
1891,"5,700000003E-2","-1,169999968E-2","-2,339999937E-2"
1892,"3,150000051E-2","-1,692000031E-1","-2,249999903E-2"
1893,"5,719999969E-2","1,349999942E-2","-2,449999936E-2"
1894,"5,029999837E-2","-1,860000007E-2","-2,290000021E-2"
1895,"3,179999813E-2","-5,599999800E-2","-2,699999884E-2"
1896,"2,589999884E-2","5,099999905E-2","1,416999996E-1"
1897,"5,089999735E-2","6,390000135E-2","-2,630000003E-2"
1898,"2,489999868E-2","4,999999702E-2","-2,489999868E-2"
1899,"-8,689999580E-2","5,739999935E-2","1,398999989E-1"
1900,"1,729999930E-1","-1,556199908E0","-2,229300022E0"
1901,"9,174999595E-1","1,745999902E-1","1,291999966E-1"
1902,"7,035999894E-1","4,133999944E-1","-5,049999803E-2"
1903,"1,045999974E-1","-3,729999810E-2","5,798999667E-1"
1904,"-1,828999966E-1","3,786999881E-1","1,322999895E-1"
1905,"1,332999915E-1","1,916999966E-1","4,531999826E-1"
1906,"5,729999766E-2","3,910000026E-1","5,879999995E-1"
1907,"-8,231999874E-1","-1,380699992E0","3,085500002E0"
1908,"3,184999824E-1","1,912999898E-1","1,086999997E-1"
1909,"7,124999762E-1","-4,048999846E-1","4,005999863E-1"
1910,"5,135999918E-1","6,675999761E-1","-1,758199930E0"
1911,"-2,360000014E-1","2,430000007E-1","-2,118999958E-1"
1912,"-5,040999651E-1","-3,339999914E-1","-4,099999741E-2"
1913,"-3,538999856E-1","2,655999959E-1","-3,427000046E-1"
1914,"2,301999927E-1","3,725999892E-1","-2,285999954E-1"
1915,"-5,813999772E-1","9,120000005E-1","-9,192999601E-1"
1916,"-2,310600042E0","-1,830999970E0","2,939999998E-1"
1917,"-6,978999972E-1","3,037999868E-1","-2,025500059E0"
1918,"7,786999941E-1","-5,588999987E-1","-2,004999876E0"
1919,"-2,851999998E-1","-2,155999988E-1","-1,096199989E0"
1920,"1,484300017E0","-4,449999928E-1","2,556699991E0"
1921,"-9,740999937E-1","9,177999496E-1","3,317099810E0"
1922,"-1,701699972E0","-1,510999948E-1","2,610599995E0"
1923,"-1,822399974E0","2,203999907E-1","-1,819999889E-2"
1924,"-6,688999534E-1","6,843999624E-1","-1,528599977E0"
1925,"-4,739999771E-1","-6,450999975E-1","-2,467900038E0"
1926,"9,829999506E-2","-2,534999847E-1","-8,309999704E-1"
1927,"-2,021999955E-1","5,606999993E-1","6,883999705E-1"
1928,"-1,477100015E0","5,250999928E-1","8,769999743E-1"
1929,"-3,111999929E-1","5,081999898E-1","7,838999629E-1"
1930,"-6,704999804E-1","1,003099918E0","-1,009500027E0"
1931,"-5,769999623E-1","1,426800013E0","-6,811999679E-1"
1932,"4,479999840E-1","-6,216999888E-1","4,690000042E-2"
1933,"9,989999980E-2","2,500999868E-1","4,523999989E-1"
1934,"2,324999869E-1","6,830999851E-1","-2,087199926E0"
1935,"1,803699970E0","-1,965899944E0","3,271199942E0"
1936,"-1,215199947E0","-7,473999858E-1","7,130999565E-1"
1937,"1,423999965E-1","2,242999971E-1","5,988000035E-1"
1938,"5,870000124E-1","1,836999953E-1","-9,702000022E-1"
1939,"-8,201999664E-1","3,488999903E-1","2,429999970E-2"
1940,"-3,529999778E-2","1,619099975E0","7,157999873E-1"
1941,"2,201599836E0","-1,722499967E0","9,450999498E-1"
1942,"1,268299937E0","-1,187999994E-1","8,700000048E-1"
1943,"-1,132999957E-1","5,128999949E-1","-2,771999836E-1"
1944,"-1,509199977E0","4,660999775E-1","-2,156199932E0"
1945,"5,679999590E-1","1,691999912E0","2,980700016E0"
1946,"1,719200015E0","1,340999961E0","8,673999906E-1"
1947,"7,437999845E-1","-6,827999949E-1","9,836999774E-1"
1948,"1,042899966E0","3,150000051E-2","-2,969499826E0"
1949,"3,652999997E-1","4,682999849E-1","-3,932399988E0"
1950,"1,806000024E-1","-1,819999963E-1","-1,635299921E0"
1951,"1,519699931E0","-1,618199944E0","1,215999961E0"
1952,"-1,004299998E0","3,067999780E-1","1,516699910E0"
1953,"-1,049999967E-1","1,691000015E-1","4,274999797E-1"
1954,"1,649999917E-1","8,287999630E-1","-2,365499973E0"
1955,"-4,499999806E-2","2,319999933E-1","-3,559999764E-1"
1956,"-1,188399911E0","-1,327999979E-1","1,020799994E0"
1957,"2,021999955E-1","-1,341999918E-1","1,202299953E0"
1958,"5,819999576E-1","-2,001999915E-1","-5,562999845E-1"
1959,"6,340999603E-1","2,413999885E-1","-4,031099796E0"
1960,"4,539999738E-2","-5,299999844E-3","-1,078499913E0"
1961,"-2,096999884E-1","-1,091400027E0","5,181799889E0"
1962,"-1,173900008E0","1,567000002E-1","6,293999553E-1"
1963,"3,228999972E-1","2,933999896E-1","-1,737499952E0"
1964,"3,039999865E-2","3,574000001E-1","8,519999981E-1"
1965,"6,290000081E-1","-2,899999917E-2","1,070199966E0"
1966,"4,992999732E-1","-9,109999985E-2","-1,909099936E0"
1967,"-2,412999868E-1","7,731999755E-1","-2,373399973E0"
1968,"-1,633599997E0","-1,840699911E0","1,691499949E0"
1969,"-4,263999760E-1","-3,762999773E-1","2,916699886E0"
1970,"-3,325999975E-1","1,309499979E0","-2,469199896E0"
1971,"9,559999406E-2","3,565999866E-1","-5,137999654E-1"
1972,"8,953999877E-1","-5,902000070E-1","1,300199986E0"
1973,"8,702999949E-1","1,002099991E0","-1,722299933E0"
1974,"-3,349999785E-1","-4,199000001E-1","-1,428900003E0"
1975,"-1,071599960E0","-1,870999932E-1","9,687999487E-1"
1976,"-9,581999779E-1","4,414999783E-1","3,197999895E-1"
1977,"-8,834999800E-1","3,840000033E-1","5,142999887E-1"
1978,"4,809999764E-1","2,445999980E-1","7,486999631E-1"
1979,"2,043000013E-1","7,753999829E-1","-2,274099827E0"
1980,"7,718999982E-1","-7,455999851E-1","1,931899905E0"
1981,"7,148999572E-1","-1,131999940E-1","-1,559000015E-1"
1982,"-9,999999311E-4","-6,539999694E-2","4,007999897E-1"
1983,"6,979999691E-2","4,895999730E-1","-7,118999958E-1"
1984,"2,254000008E-1","-9,882999659E-1","-4,440999925E-1"
1985,"1,463299990E0","5,288999677E-1","1,141600013E0"
1986,"-1,459499955E0","6,784999967E-1","-1,568099976E0"
1987,"-5,342999697E-1","-7,883999944E-1","7,045999765E-1"
1988,"6,618999839E-1","-2,020999938E-1","1,154799938E0"
1989,"7,795999646E-1","-4,268999994E-1","-9,118999839E-1"
1990,"1,733999997E-1","-4,341999888E-1","2,110599995E0"
1991,"1,693999916E-1","1,709999889E-2","7,679999620E-2"
1992,"-3,450999856E-1","-2,098999918E-1","1,665999889E-1"
1993,"6,929999590E-2","-1,002699971E0","2,104300022E0"
1994,"-3,595999777E-1","7,558999658E-1","-2,182999849E0"
1995,"3,781999946E-1","3,998000026E-1","3,510999978E-1"
1996,"-1,532000005E-1","2,160999924E-1","1,737899899E0"
1997,"-9,041999578E-1","-6,197999716E-1","-1,771899939E0"
1998,"-7,833999991E-1","-5,719000101E-1","1,513999939E0"
1999,"1,083299994E0","1,222999990E-1","-7,899999619E-3"
2000,"-7,328999639E-1","-2,741000056E-1","-1,156299949E0"
2001,"1,109099984E0","-2,335999906E-1","1,497499943E0"
2002,"2,005999982E-1","1,317799926E0","-3,209800005E0"
2003,"-8,008999825E-1","-1,084499955E0","1,388999939E0"
2004,"3,622999787E-1","7,610999942E-1","-1,023999974E-1"
2005,"4,156999886E-1","4,008999765E-1","-7,148999572E-1"
2006,"7,252999544E-1","-4,849999845E-1","-1,158800006E0"
2007,"9,939999580E-1","5,931000113E-1","2,040799856E0"
2008,"-9,559999704E-1","3,120999932E-1","1,145999953E-1"
2009,"2,845000029E-1","1,802999973E-1","-1,917299986E0"
2010,"1,405999959E-1","-7,200999856E-1","1,416700006E0"
2011,"2,035899878E0","-1,009400010E0","2,807799816E0"
2012,"9,300000034E-3","-8,066999912E-1","-2,473500013E0"
2013,"2,110999972E-1","-1,449999958E-1","-6,177999973E-1"
2014,"1,108799934E0","-7,849999517E-2","-7,945999503E-1"
2015,"2,641899824E0","-4,941999912E-1","-1,116699934E0"
2016,"-3,416999876E-1","9,653999805E-1","-2,148000002E0"
2017,"-5,748999715E-1","-8,465999961E-1","2,671200037E0"
2018,"-3,856999874E-1","4,703999758E-1","-1,426699996E0"
2019,"1,152999997E-1","5,554999709E-1","7,633000016E-1"
2020,"-5,739999935E-2","-3,638999760E-1","-4,158999920E-1"
2021,"-1,457899928E0","1,302699924E0","3,198099852E0"
2022,"2,685999870E-1","6,369999647E-1","1,618999958E0"
2023,"-3,159999847E-2","5,496999621E-1","-4,963999987E-1"
2024,"-1,147899985E0","-7,199999690E-2","-5,309999734E-2"
2025,"1,341599941E0","1,150999963E-1","2,749999985E-2"
2026,"3,720000014E-2","-1,131699920E0","3,367999792E-1"
2027,"-1,669999957E-2","-5,029999837E-2","-1,945599914E0"
2028,"2,267999947E-1","1,401000023E-1","-4,492999911E-1"
2029,"5,855000019E-1","-2,021999955E-1","-6,799999624E-2"
2030,"-2,965999842E-1","5,509999767E-2","2,913100004E0"
2031,"3,951999843E-1","-5,303999782E-1","-2,575999796E-1"
2032,"-2,400000021E-2","7,924000025E-1","1,059999987E-1"
2033,"9,569000006E-1","2,590999901E-1","-1,921399951E0"
2034,"-1,045999974E-1","-4,793999791E-1","-2,226300001E0"
2035,"-3,720999956E-1","6,678999662E-1","4,726999998E-1"
2036,"1,773999929E-1","8,003000021E-1","-3,264499903E0"
2037,"-5,588999987E-1","-1,108999997E-1","1,004799962E0"
2038,"6,787999868E-1","-2,439999953E-2","1,096099973E0"
2039,"5,910999775E-1","5,435999632E-1","-2,035099983E0"
2040,"-7,290999889E-1","-7,059999555E-2","-2,087800026E0"
2041,"2,231999934E-1","7,561999559E-1","2,477599859E0"
2042,"-9,591999650E-1","1,520999968E-1","-4,859999940E-2"
2043,"8,442999721E-1","-4,765999913E-1","-1,167299986E0"
2044,"-5,888999701E-1","-1,189800024E0","1,606499910E0"
2045,"7,278999686E-1","8,802999854E-1","1,235999987E-1"
2046,"-1,968999952E-1","-1,028200030E0","2,337999940E-1"
2047,"4,659999907E-1","-1,956999898E0","6,545300007E0"
2048,"-1,336499929E0","2,742999792E-1","1,189999953E-1"
2049,"-1,929000020E-1","-9,042999744E-1","-2,483999878E-1"
2050,"-1,069299936E0","-1,309999973E-1","1,323099971E0"
2051,"1,163200021E0","1,449999958E-1","-2,412999868E-1"
2052,"1,630000025E-2","-2,405999899E-1","-1,544999957E0"
2053,"7,779999822E-2","4,176999927E-1","1,788899899E0"
2054,"-4,175999761E-1","2,793999910E-1","-1,177099943E0"
2055,"-5,869999900E-2","-1,340999901E-1","3,669999838E-1"
2056,"-1,031999961E-1","8,172999620E-1","2,158999890E-1"
2057,"1,063699961E0","2,803999782E-1","-3,034699917E0"
2058,"-2,321999967E-1","3,571999967E-1","-1,874399900E0"
2059,"-5,292999744E-1","2,318999916E-1","7,268999815E-1"
2060,"1,446999907E-1","-3,805999756E-1","-9,034999609E-1"
2061,"-2,527000010E-1","2,249999903E-2","4,479999840E-2"
2062,"1,035899997E0","-5,493999720E-1","4,365999997E-1"
2063,"-2,404999882E-1","-1,514899969E0","3,245199919E0"
2064,"-2,782999873E-1","1,136699915E0","8,280000091E-2"
2065,"2,784000039E-1","2,906999886E-1","-2,743399858E0"
2066,"-1,086099982E0","-4,493999779E-1","3,033699989E0"
2067,"3,429999948E-1","6,409999728E-2","-5,004000068E-1"
2068,"-3,614999950E-1","-7,098000050E-1","1,180999950E-1"
2069,"-2,250999957E-1","-2,148000002E-1","1,161000013E0"
2070,"3,276000023E-1","7,149999738E-1","-6,538000107E-1"
2071,"7,744999528E-1","-2,170099974E0","2,571799994E0"
2072,"-5,098000169E-1","2,081899881E0","1,433999985E-1"
2073,"-4,745000005E-1","4,156000018E-1","1,039999947E-1"
2074,"-1,325399995E0","2,459999919E-2","-1,159199953E0"
2075,"-5,137000084E-1","3,659999743E-2","2,845999897E-1"
2076,"1,250100017E0","-9,889999777E-2","9,118999839E-1"
2077,"-3,267000020E-1","-9,339999408E-2","-1,122599959E0"
2078,"3,817999959E-1","2,742999792E-1","4,359000027E-1"
2079,"-1,149199963E0","-6,816999912E-1","2,370199919E0"
2080,"6,184999943E-1","2,021999955E-1","-1,655000001E-1"
2081,"8,240000159E-2","-2,525999844E-1","-2,381299973E0"
2082,"-2,751999795E-1","5,638999939E-1","1,128700018E0"
2083,"3,366999924E-1","3,132999837E-1","-1,090499997E0"
2084,"-1,133800030E0","4,532999992E-1","-1,158900023E0"
2085,"4,990999997E-1","1,076999977E-1","-3,576999903E-1"
2086,"-5,559999868E-2","8,700000048E-1","-2,246799946E0"
2087,"3,030000031E-1","4,204999804E-1","2,470099926E0"
2088,"-2,723000050E-1","1,903999895E-1","-1,957399964E0"
2089,"-2,118999958E-1","-2,588000000E-1","2,261999995E-1"
2090,"-1,850000024E-2","5,956000090E-1","-1,158499956E0"
2091,"1,495100021E0","6,480000019E-1","-1,382599950E0"
2092,"1,691000015E-1","2,800999880E-1","-2,688799858E0"
2093,"3,315999806E-1","9,572999477E-1","3,244999945E-1"
2094,"-6,269999743E-1","3,506000042E-1","-8,901999593E-1"
2095,"3,204999864E-1","-2,665999830E-1","-3,656999767E-1"
2096,"-7,601000071E-1","-6,480000168E-2","4,588999748E-1"
2097,"3,359999955E-1","-1,455500007E0","4,554399967E0"
2098,"3,754999936E-1","-2,249999940E-1","1,924999952E-1"
2099,"1,061800003E0","-1,499999966E-2","-2,874999940E-1"
2100,"4,695999920E-1","-2,361999899E-1","-1,908999920E0"
2101,"7,910999656E-1","-6,225999594E-1","1,755599976E0"
2102,"-1,189999934E-2","-1,174999952E0","2,443300009E0"
2103,"-5,817999840E-1","1,430999935E-1","1,658199906E0"
2104,"2,819999866E-2","1,014299989E0","-8,339999914E-1"
2105,"6,949999928E-2","-4,930000007E-1","2,045699835E0"
2106,"1,965999901E-1","4,189999774E-2","-1,150999963E-1"
2107,"1,239499927E0","-3,791999817E-1","3,095299959E0"
2108,"-9,029999971E-1","2,123999894E-1","2,479999885E-2"
2109,"-9,960999489E-1","4,450999796E-1","-6,116999984E-1"
2110,"3,328999877E-1","1,090999991E-1","-1,650999933E-1"
2111,"7,914999723E-1","4,649999738E-2","4,341000021E-1"
2112,"-4,708999991E-1","2,061999887E-1","1,769699931E0"
2113,"4,968999922E-1","2,749999985E-2","-1,629099965E0"
2114,"4,948000014E-1","-6,620000005E-1","-1,446200013E0"
2115,"-3,201999962E-1","-6,603999734E-1","-8,648999929E-1"
2116,"-8,357999921E-1","5,956999660E-1","1,315899968E0"
2117,"-9,106000066E-1","-3,695999980E-1","-2,578999996E-1"
2118,"4,074999988E-1","8,894000053E-1","-1,880499959E0"
2119,"-1,724200010E0","-7,121999860E-1","8,739999533E-1"
2120,"4,826999903E-1","6,818000078E-1","-1,453000009E-1"
2121,"7,168999910E-1","-1,212899923E0","2,104199886E0"
2122,"2,719999850E-2","1,205600023E0","-9,488999844E-1"
2123,"1,730000041E-2","-3,439999819E-1","-2,578199863E0"
2124,"-9,839999676E-2","4,639999941E-2","1,698499918E0"
2125,"6,729999930E-2","4,650999904E-1","-2,799199820E0"
2126,"1,800599933E0","5,396999717E-1","1,022799969E0"
2127,"3,499999940E-1","2,189999968E-1","-1,608899951E0"
2128,"-3,218999803E-1","3,635999858E-1","-9,108999968E-1"
2129,"-6,319999695E-1","-5,040000007E-2","1,503499985E0"
2130,"6,030000001E-2","-2,375999987E-1","1,732999980E-1"
2131,"-2,403999865E-1","3,542999923E-1","-7,915999889E-1"
