"Time (s)"	"Linear Acceleration x (m/s^2)"	"Linear Acceleration y (m/s^2)"	"Linear Acceleration z (m/s^2)"
1.024252571E0	-4.212999940E-1	-4.377000034E-1	-9.017999768E-1
2.024252571E0	8.209999651E-2	-3.956999779E-1	1.086799979E0
3.024252571E0	4.156000018E-1	-7.419999689E-2	1.515000015E-1
4.157622916E0	5.430999994E-1	-4.160999954E-1	1.636699915E0
5.157622916E0	5.389999747E-1	3.489999771E-1	3.792999983E-1
6.157622916E0	1.036599994E0	9.979999661E-1	3.506000042E-1
7.157622916E0	1.964000016E-1	1.709999889E-2	3.267999887E-1
8.157622916E0	-1.125599980E0	6.392999887E-1	-2.405999899E-1
9.157622916E0	9.549999982E-2	-1.141499996E0	6.003000140E-1
1.034674277E1	-4.719999805E-2	2.678000033E-1	2.160999924E-1
1.134674277E1	-1.166999936E-1	-8.799999952E-2	8.946999907E-1
1.331026823E1	-2.924199820E0	5.181999803E-1	6.246199608E0
1.431026823E1	1.517599940E0	7.089999914E-1	-2.498999834E0
1.531026823E1	6.577000022E-1	-3.221999884E0	1.361999959E-1
1.631026823E1	7.691999674E-1	1.799099922E0	8.001999855E-1
1.731026823E1	-2.556399822E0	-6.399999559E-2	3.075000048E-1
1.831026823E1	3.360999823E-1	9.065999985E-1	-1.562199950E0
1.931026823E1	8.421999812E-1	8.693000078E-1	-1.367599964E0
2.031026823E1	9.195999503E-1	-5.882999897E-1	-9.257999659E-1
2.131026823E1	5.752299786E0	-3.031599998E0	5.625299931E0
2.231026823E1	-6.189799786E0	-7.188999653E-1	-5.608799934E0
2.331026823E1	-9.230999947E-1	-7.430999875E-1	-5.322499752E0
2.431026823E1	-6.667999625E-1	7.868999839E-1	-1.032999977E-1
2.531026823E1	8.840999603E-1	1.334499955E0	1.045599937E0
2.631026823E1	-5.941999555E-1	1.186699986E0	-1.289099932E0
2.731026823E1	5.069999695E-1	-5.690000057E-1	1.232299924E0
2.831026823E1	-4.408999979E-1	-9.289000034E-1	2.581999898E-1
2.931026823E1	-8.789999485E-1	2.671000063E-1	-4.086000025E-1
3.031026823E1	6.200999618E-1	9.429999441E-2	-5.504999757E-1
3.131026823E1	-6.531999707E-1	-2.201000005E-1	-1.165899992E0
3.231026823E1	2.769699812E0	1.048300028E0	1.648499966E0
3.331026823E1	2.146899939E0	3.518999815E-1	2.154799938E0
3.431026823E1	-1.154099941E0	2.342000008E-1	-1.406599998E0
3.531026823E1	2.547999918E-1	-1.675799966E0	1.599499941E0
3.631026823E1	1.533999890E-1	9.257999659E-1	-2.225999981E-1
3.731026823E1	-1.647199988E0	-1.009999961E-2	-3.865000010E-1
3.831026823E1	-2.744999826E-1	4.415999949E-1	3.517999947E-1
3.931026823E1	-1.110999942E0	-1.042699933E0	-9.030000120E-2
4.031026823E1	2.753499985E0	-1.551199913E0	-3.792699814E0
4.131026823E1	-7.930999994E-1	3.798999786E-1	-1.529699922E0
4.231026823E1	1.529500008E0	2.926999927E-1	-2.202199936E0
4.331026823E1	7.945999503E-1	-3.792999983E-1	1.612999886E-1
4.431026823E1	9.502999783E-1	9.104999900E-1	-2.535799980E0
4.531026823E1	-5.709999800E-1	-3.488999903E-1	-1.395999938E-1
4.631026823E1	2.040999979E-1	7.699999958E-2	-2.370999902E-1
4.731026823E1	-2.579999901E-2	1.856999993E-1	1.251600027E0
4.831026823E1	1.171000004E-1	-4.360000044E-2	5.261999965E-1
4.931026823E1	2.462999970E-1	5.447999835E-1	-8.509999514E-2
5.031026823E1	5.558999777E-1	-1.358299971E0	1.123799920E0
5.131026823E1	-1.202399969E0	1.349999942E-2	-7.109999657E-1
5.231026823E1	-4.671999812E-1	-5.700000003E-2	3.694999814E-1
5.331026823E1	-4.143999815E-1	3.204999864E-1	-7.229999900E-1
5.431026823E1	-1.451099992E0	-7.529999614E-1	6.220999718E0
5.531026823E1	1.587999910E-1	3.457999825E-1	1.613499999E0
5.631026823E1	-8.544999957E-1	-7.999999449E-3	1.493600011E0
5.731026823E1	-4.095999897E-1	-6.924999952E-1	1.391699910E0
5.831026823E1	-2.685999870E-1	5.539999604E-1	-1.888199925E0
5.931026823E1	9.254999757E-1	-1.879399896E0	1.047399998E0
6.031026823E1	-1.076699972E0	5.108999610E-1	-7.520999908E-1
6.131026823E1	1.054499984E0	1.478500009E0	-1.876699924E0
6.231026823E1	6.699999794E-3	4.010999799E-1	-5.045999885E-1
6.331026823E1	-4.904999733E-1	5.252999663E-1	8.049999923E-2
6.431026823E1	7.140000165E-2	4.675999880E-1	-4.323999882E-1
6.531026823E1	-7.700999975E-1	5.444999933E-1	-1.179299951E0
6.631026823E1	3.249000013E-1	-1.272999942E-1	2.454999983E-1
6.731026823E1	-7.299999706E-3	7.099999487E-2	4.679999873E-2
6.831026823E1	-3.273999989E-1	2.949000001E-1	1.112999991E-1
6.931026823E1	-1.180000007E-1	-1.252000034E-1	9.638999701E-1
7.031026823E1	-1.921999902E-1	1.868999898E-1	3.319999948E-2
7.131026823E1	-1.459999979E-1	5.699999630E-3	-2.558999956E-1
7.231026823E1	1.982999891E-1	2.383999974E-1	-1.638000011E-1
7.331026823E1	-2.620000020E-2	-4.639999941E-2	4.059999883E-1
7.431026823E1	1.184000000E-1	1.489999983E-2	1.451999992E-1
7.531026823E1	1.741999984E-1	-1.081999987E-1	1.232999936E-1
7.631026823E1	-3.209999949E-2	7.339999825E-2	7.580000162E-2
7.731026823E1	-4.253999889E-1	5.874999762E-1	1.463999897E-1
7.831026823E1	1.913199902E0	2.275999933E-1	-3.042099953E0
7.931026823E1	-8.222000003E-1	1.010200024E0	3.534999788E-1
8.031026823E1	-7.543999553E-1	1.193000004E-1	9.085999727E-1
8.131026823E1	8.657999635E-1	-2.679999918E-2	-3.696999848E-1
8.231026823E1	2.437999994E-1	-4.652999938E-1	1.527999938E-1
8.331026823E1	-9.309999943E-1	4.730999768E-1	2.541199923E0
8.431026823E1	-1.417999983E0	1.182999983E-1	2.158299923E0
8.531026823E1	-6.639999896E-2	-5.689999834E-2	8.731999993E-1
8.631026823E1	-2.292999923E-1	7.892000079E-1	2.924999893E-1
8.731026823E1	-8.095999956E-1	-5.799999833E-1	5.419999734E-2
8.831026823E1	-3.467999995E-1	-1.406999975E-1	-7.387999892E-1
8.931026823E1	-5.119999647E-1	2.079999894E-1	-7.232999802E-1
9.031026823E1	3.379999846E-2	5.794999599E-1	-2.129199982E0
9.131026823E1	-1.271999955E0	-2.867999971E-1	1.721499920E0
9.231026823E1	-1.612900019E0	-9.809999913E-2	1.817600012E0
9.331026823E1	-1.173999980E-1	-9.380000085E-2	-1.354900002E0
9.431026823E1	8.860999942E-1	9.734999537E-1	-6.017000079E-1
9.531026823E1	-8.693999648E-1	4.479999840E-1	-1.425999999E0
9.631026823E1	1.040799975E0	-7.559999824E-2	1.843999922E-1
9.731026823E1	-6.712999940E-1	6.706999540E-1	4.615999758E-1
9.831026823E1	-1.728999913E-1	2.307000011E-1	6.216999888E-1
9.931026823E1	2.184000015E-1	-5.181999803E-1	-2.926999927E-1
1.003102682E2	2.145999968E-1	-1.064599991E0	2.137099981E0
1.013102682E2	-1.845499992E0	-2.492999882E-1	1.066999957E-1
1.023102682E2	1.195899963E0	3.231000006E-1	-6.358000040E-1
1.033102682E2	-1.756999940E-1	3.889999986E-1	-1.914999932E-1
1.043102682E2	6.737999916E-1	-3.608999848E-1	7.707999945E-1
1.053102682E2	-3.130000085E-2	3.208000064E-1	-1.025200009E0
1.063102682E2	5.799999926E-3	5.378000140E-1	6.729999930E-2
1.073102682E2	-5.461999774E-1	4.490000010E-2	-2.300000051E-3
1.083102682E2	-1.129099965E0	-4.140999913E-1	1.011799932E0
1.093102682E2	9.869999886E-1	1.053999960E-1	1.208999977E-1
1.103102682E2	-3.940999806E-1	1.142999977E-1	5.909999833E-2
1.113102682E2	-4.389999807E-2	6.186999679E-1	-5.004999638E-1
1.123102682E2	1.815000027E-1	4.425999820E-1	1.973999888E-1
1.133102682E2	-1.844499946E0	4.468999803E-1	6.897999644E-1
1.143102682E2	4.729999900E-1	9.932000041E-1	-2.310999930E-1
1.153102682E2	1.903999895E-1	-4.206999838E-1	2.355999947E-1
1.163102682E2	-7.699999958E-3	-1.197199941E0	-5.275999904E-1
1.173102682E2	-4.038999975E-1	4.987999797E-1	2.041999996E-1
1.183102682E2	-7.667999864E-1	3.655999899E-1	-1.055799961E0
1.193102682E2	-1.671999931E0	-1.762000024E-1	1.555299997E0
1.203102682E2	8.366000056E-1	4.259999990E-1	1.392000020E-1
1.213102682E2	1.089200020E0	-9.162999988E-1	-3.319999874E-1
1.223102682E2	2.629999816E-1	8.299999870E-3	4.159999788E-1
1.233102682E2	-7.742999792E-1	7.324000001E-1	-1.636999995E-1
1.243102682E2	-2.009899855E0	5.392000079E-1	7.403999567E-1
1.253102682E2	9.044999480E-1	7.150999904E-1	-2.483899832E0
1.263102682E2	1.062600017E0	-5.044999719E-1	-4.989999905E-2
1.273102682E2	2.208999991E-1	-4.136999846E-1	7.252999544E-1
1.283102682E2	-3.937000036E-1	7.599999756E-2	1.032899976E0
1.293102682E2	-1.330199957E0	-7.544999719E-1	1.648299932E0
1.303102682E2	5.419999957E-1	5.547999740E-1	-1.636899948E0
1.313102682E2	6.037999988E-1	2.356999964E-1	-2.094099998E0
1.323102682E2	5.128999949E-1	-4.332000017E-1	1.238799930E0
1.333102682E2	1.036999971E-1	-3.732999861E-1	-1.934999973E-1
1.343102682E2	-8.493999839E-1	-5.220000148E-1	-1.447999924E-1
1.353102682E2	-1.510999948E-1	-5.257999897E-1	1.364300013E0
1.363102682E2	-2.518000007E-1	6.768999696E-1	1.610899925E0
1.373102682E2	-1.630999893E-1	4.140999913E-1	-1.604900002E0
1.383102682E2	4.865999818E-1	-1.989999972E-2	7.044999599E-1
1.393102682E2	-9.362999797E-1	-3.881999850E-1	1.735399961E0
1.403102682E2	-4.812999964E-1	3.016999960E-1	3.823999763E-1
1.413102682E2	3.164999783E-1	1.579999924E-1	7.269999981E-1
1.423102682E2	7.798999548E-1	-4.213999808E-1	-3.100999892E-1
1.433102682E2	-2.500000000E-1	1.995999962E-1	5.623999834E-1
1.443102682E2	2.988999784E-1	-7.956999540E-1	-1.523899913E0
1.453102682E2	1.136999950E-1	1.186499953E0	6.460999846E-1
1.463102682E2	1.524699926E0	-1.222599983E0	1.308200002E0
1.473102682E2	-3.844999969E-1	-1.378999949E-1	2.926000059E-1
1.483102682E2	-5.364999771E-1	1.278999895E-1	1.654999971E0
1.493102682E2	-2.274999917E-1	-2.965999842E-1	-3.979999945E-2
1.503102682E2	6.574000120E-1	6.567999721E-1	-1.095399976E0
1.513102682E2	6.426999569E-1	-7.229999900E-1	-3.093000054E-1
1.523102682E2	1.999999862E-3	2.759999931E-1	5.126000047E-1
1.533102682E2	-6.268000007E-1	4.699999839E-2	1.706699967E0
1.543102682E2	-1.613999963E0	3.429999948E-1	8.955000043E-1
1.553102682E2	9.047999978E-1	4.774999917E-1	-6.883999705E-1
1.563102682E2	7.364000082E-1	1.955999881E-1	3.039000034E-1
1.573102682E2	-9.876999855E-1	6.791999936E-1	-9.679999948E-1
1.583102682E2	5.245999694E-1	8.545999527E-1	-9.547999501E-1
1.593102682E2	5.511999726E-1	-3.109999932E-2	-8.278999925E-1
1.603102682E2	-1.346300006E0	3.725000024E-1	8.862999678E-1
1.613102682E2	8.459999561E-1	-2.734999955E-1	1.559199929E0
1.623102682E2	3.222000003E-1	-2.575999796E-1	-2.557999790E-1
1.633102682E2	-7.074999809E-1	1.867000014E-1	2.317999899E-1
1.643102682E2	-1.006399989E0	-2.901999950E-1	-5.533999801E-1
1.653102682E2	9.355999827E-1	-4.953999817E-1	9.020999670E-1
1.663102682E2	6.151999831E-1	6.229999661E-2	8.197000027E-1
1.673102682E2	-1.694700003E0	3.064000010E-1	1.219999976E-2
1.683102682E2	9.719999880E-2	5.178999901E-1	-8.032000065E-1
1.693102682E2	2.111999989E-1	-8.693999648E-1	2.438099861E0
1.703102682E2	-3.506999910E-1	6.628999710E-1	1.045999974E-1
1.713102682E2	-1.092000008E0	5.689999834E-2	5.737000108E-1
1.723102682E2	9.301999807E-1	-5.906000137E-1	2.785199881E0
1.733102682E2	9.338999987E-1	5.615000129E-1	1.485499978E0
1.743102682E2	-4.087999761E-1	-7.154999971E-1	1.177999973E-1
1.753102682E2	-1.063099980E0	-4.794999957E-1	7.999999449E-3
1.763102682E2	4.018999934E-1	3.867000043E-1	7.688999772E-1
1.773102682E2	2.284999937E-1	-3.700000048E-1	2.529999912E-1
1.783102682E2	-1.460999995E-1	-2.403999865E-1	1.115499973E0
1.793102682E2	-4.020999968E-1	-3.975999951E-1	-8.501999974E-1
1.803102682E2	5.263999701E-1	6.671000123E-1	-2.523200035E0
1.813102682E2	1.180499911E0	-4.727999866E-1	-1.261500001E0
1.823102682E2	6.539999694E-2	1.446999907E-1	-4.100999832E-1
1.833102682E2	-7.530000061E-2	3.303999901E-1	-1.636600018E0
1.843102682E2	-1.197000027E0	-1.239999942E-2	7.328000069E-1
1.853102682E2	5.633000135E-1	2.044999897E-1	8.677999973E-1
1.863102682E2	1.935999990E-1	8.009999990E-2	-4.127999842E-1
1.873102682E2	-9.044999480E-1	-3.019999899E-2	2.050899982E0
1.883102682E2	-1.263099909E0	1.917999983E-1	2.531000078E-1
1.893102682E2	8.876000047E-1	-2.563000023E-1	1.782299995E0
1.903102682E2	6.164999604E-1	-5.728999972E-1	-3.249999881E-2
1.913102682E2	9.283999801E-1	5.342000127E-1	1.006299973E0
1.923102682E2	-7.405999899E-1	2.563999891E-1	2.748999894E-1
1.933102682E2	-1.148199916E0	-3.070000000E-2	1.561999917E-1
1.943102682E2	6.794999838E-1	2.884999812E-1	-1.918099999E0
1.953102682E2	-3.783999979E-1	7.430999875E-1	1.350099921E0
1.963102682E2	-3.449999914E-2	-8.339999616E-2	3.346000016E-1
1.973102682E2	7.662999630E-1	-8.299999684E-2	-1.947899938E0
1.983102682E2	9.017999768E-1	-4.837999940E-1	-4.845999777E-1
1.993102682E2	7.094999552E-1	2.769999802E-1	5.856999755E-1
2.003102682E2	9.648000002E-1	-5.351999998E-1	6.663999557E-1
2.013102682E2	-7.768999934E-1	1.239999942E-2	2.012599945E0
2.023102682E2	-3.807999790E-1	-4.524999857E-1	6.568099976E0
2.033102682E2	-6.179999933E-2	5.285999775E-1	1.375100017E0
2.043102682E2	7.404999733E-1	-4.741999805E-1	1.125299931E0
2.053102682E2	7.173999548E-1	-1.147099972E0	-2.523000002E0
2.063102682E2	2.719999850E-2	-7.035999894E-1	1.209999993E-2
2.073102682E2	1.036299944E0	-1.273999959E-1	2.014999866E0
2.083102682E2	-1.205099940E0	7.969999909E-1	3.452499866E0
2.093102682E2	-1.349900007E0	1.135399938E0	4.871999919E-1
2.103102682E2	-6.068999767E-1	1.160699964E0	-3.413800001E0
2.113102682E2	-5.769000053E-1	6.911999583E-1	-1.113299966E0
2.123102682E2	5.795999765E-1	-7.894999981E-1	1.440899968E0
2.133102682E2	-5.221999884E-1	-2.944999933E-1	-2.152999938E-1
2.143102682E2	7.737999558E-1	-2.038999945E-1	1.342599988E0
2.153102682E2	4.782999754E-1	2.421000004E-1	-1.315999985E0
2.163102682E2	-5.877999663E-1	1.782099962E0	-2.702499866E0
2.173102682E2	6.897999644E-1	-1.674000025E-1	5.505999923E-1
2.183102682E2	-6.665999889E-1	-4.308999777E-1	-4.199000001E-1
2.193102682E2	1.399999950E-2	6.924999952E-1	-1.562699914E0
2.203102682E2	-5.559999868E-2	-3.375000060E-1	-3.029299974E0
2.213102682E2	-1.701999903E-1	-8.089999557E-1	-1.101999998E0
2.223102682E2	2.246999890E-1	-3.233999908E-1	-1.307699919E0
2.233102682E2	-2.039999887E-2	-2.505999804E-1	4.953999817E-1
2.243102682E2	7.198999524E-1	7.892000079E-1	-1.598999977E0
2.253102682E2	6.216999888E-1	-1.578699946E0	8.746999502E-1
2.263102682E2	4.095999897E-1	-4.745999873E-1	2.277499914E0
2.273102682E2	1.680999994E-1	2.745999992E-1	1.173999980E-1
2.283102682E2	-6.838999987E-1	8.915999532E-1	-2.160899878E0
2.293102682E2	1.038399935E0	-1.059100032E0	3.016299963E0
2.303102682E2	-1.079999954E-1	6.377999783E-1	5.268999934E-1
2.313102682E2	-1.359799981E0	1.955999881E-1	-1.119899988E0
2.323102682E2	2.847999930E-1	-1.961999983E-1	1.506799936E0
2.333102682E2	1.356000006E-1	1.775999963E-1	-7.928999662E-1
2.343102682E2	-8.184999824E-1	3.539999947E-2	-1.497699976E0
2.353102682E2	2.574999928E-1	-2.847999930E-1	-6.721999645E-1
2.363102682E2	-8.579999954E-2	3.507999778E-1	-2.540999949E-1
2.373102682E2	-2.839999795E-1	-2.284999937E-1	-2.719999850E-2
2.383102682E2	9.637999535E-1	-9.896000028E-1	6.300000008E-3
2.393102682E2	-1.255999923E0	-1.203999966E-1	3.099900007E0
2.403102682E2	-4.637999833E-1	-1.976999938E-1	1.422599912E0
2.413102682E2	1.095199943E0	-3.084000051E-1	-4.391999841E-1
2.423102682E2	-4.438999891E-1	-3.228999972E-1	3.842399836E0
2.433102682E2	-7.192999721E-1	3.078999817E-1	-7.700999975E-1
2.443102682E2	5.781999826E-1	-1.961999983E-1	5.884000063E-1
2.453102682E2	-1.767999977E-1	-3.219999969E-1	2.992799997E0
2.463102682E2	-9.447000027E-1	7.459999919E-1	4.705999792E-1
2.473102682E2	-1.112399936E0	2.584999800E-1	-4.819999933E-1
2.483102682E2	2.850999832E-1	9.529999644E-2	1.219499946E0
2.493102682E2	6.929000020E-1	-7.683999538E-1	1.119099975E0
2.503102682E2	4.333999753E-1	-1.244999990E-1	1.305099964E0
2.513102682E2	-8.075000048E-1	2.459999919E-2	1.585099936E0
2.523102682E2	-1.211499929E0	1.198999956E-1	-1.340799928E0
2.533102682E2	9.690000117E-2	6.013000011E-1	-9.168999791E-1
2.543102682E2	-1.386999935E-1	-3.112999797E-1	8.955000043E-1
2.553102682E2	4.687999785E-1	1.399999950E-2	-5.685999990E-1
2.563102682E2	3.136999905E-1	-3.050000072E-1	6.466000080E-1
2.573102682E2	3.838999867E-1	2.601000071E-1	1.888999939E-1
2.583102682E2	-4.008999765E-1	8.769999444E-2	1.814099908E0
2.593102682E2	5.819999799E-2	3.754999936E-1	-1.276299953E0
2.603102682E2	-5.873000026E-1	1.683999896E-1	-5.256999731E-1
2.613102682E2	-1.374899983E0	1.651999950E-1	-1.120299935E0
2.623102682E2	-9.811999798E-1	3.811999857E-1	-7.827999592E-1
2.633102682E2	-1.593999982E0	6.751999855E-1	-5.726000071E-1
2.643102682E2	-9.730999470E-1	3.746999800E-1	-4.060999751E-1
2.653102682E2	4.329999909E-2	-2.043000013E-1	-3.062999845E-1
2.663102682E2	3.188000023E-1	4.813999832E-1	4.652999938E-1
2.673102682E2	1.606599927E0	-4.697999954E-1	-1.801999956E-1
2.683102682E2	2.122000009E-1	-4.147000015E-1	1.228999943E-1
2.693102682E2	3.522000015E-1	-6.464999914E-1	6.362999678E-1
2.703102682E2	1.586999893E-1	-1.283999979E-1	4.849999771E-2
2.713102682E2	1.224999949E-1	2.466999888E-1	1.395999938E-1
2.723102682E2	4.491999745E-1	-1.371999979E-1	-1.313300014E0
2.733102682E2	-4.521999955E-1	8.357999921E-1	-1.162500024E0
2.743102682E2	1.099999994E-3	3.344999850E-1	1.150399923E0
2.753102682E2	3.398000002E-1	7.519999892E-2	7.962999940E-1
2.763102682E2	8.064999580E-1	-5.523999929E-1	5.886999965E-1
2.773102682E2	2.084999979E-1	-1.388999939E0	8.944000006E-1
2.783102682E2	1.197600007E0	-1.067700028E0	-1.630499959E0
2.793102682E2	-4.211999774E-1	-1.391699910E0	4.975699902E0
2.803102682E2	1.167099953E0	-5.249999762E-1	-5.899999738E-1
2.813102682E2	1.826999933E-1	1.035999954E-1	-7.991999984E-1
2.823102682E2	1.070599914E0	-5.269999802E-2	-2.685999870E-1
2.833102682E2	-6.603999734E-1	-5.717999935E-1	2.033400059E0
2.843102682E2	-2.827999890E-1	5.210999846E-1	-5.304999948E-1
2.853102682E2	-6.807999611E-1	-5.133000016E-1	2.859699965E0
2.863102682E2	-1.191900015E0	8.659999818E-2	2.286999971E-1
2.873102682E2	-1.774699926E0	1.523000002E-1	2.419399977E0
2.883102682E2	9.009999782E-2	5.424999595E-1	-7.282999754E-1
2.893102682E2	5.022000074E-1	-1.045999974E-1	-1.304899931E0
2.903102682E2	1.679499984E0	4.055999815E-1	-2.732399940E0
2.913102682E2	-2.304999977E-1	5.956999660E-1	3.438999891E0
2.923102682E2	-6.729999930E-2	6.157000065E-1	-8.944000006E-1
2.933102682E2	-1.889999956E-2	4.836999774E-1	-3.004099846E0
2.943102682E2	-5.327999592E-1	2.629199982E0	-4.698199749E0
2.953102682E2	4.807999730E-1	3.446999788E-1	-2.106099844E0
2.963102682E2	9.742999673E-1	-6.053999662E-1	-2.795000076E-1
2.973102682E2	5.687999725E-1	-4.976999760E-1	1.512499928E0
2.983102682E2	5.713999867E-1	1.016499996E0	-4.305999875E-1
2.993102682E2	-5.819999576E-1	-7.708999515E-1	2.006799936E0
3.003102682E2	-1.289099932E0	2.406999916E-1	-1.405399919E0
3.013102682E2	-8.463000059E-1	2.768000066E-1	3.929999843E-2
3.023102682E2	-1.541000009E-1	1.157199979E0	2.163399935E0
3.033102682E2	3.450999856E-1	2.630999982E-1	-2.559999935E-2
3.043102682E2	4.710000008E-2	1.994999945E-1	-1.012699962E0
3.053102682E2	6.575999856E-1	-2.557999790E-1	-6.735000014E-1
3.063102682E2	-1.529999916E-2	1.173999980E-1	1.458400011E0
3.073102682E2	-2.352999896E-1	1.799999923E-2	9.615999460E-1
3.083102682E2	1.849000007E-1	1.784999967E-1	6.705999970E-1
3.093102682E2	1.792999953E-1	1.406999975E-1	-1.430999994E0
3.103102682E2	8.838999867E-1	-7.385999560E-1	3.371799946E0
3.113102682E2	2.881999910E-1	-3.539999947E-2	-4.999999888E-3
3.123102682E2	-5.599999800E-3	-7.100999951E-1	1.980099916E0
3.133102682E2	-5.544999838E-1	-4.174000025E-1	1.346099973E0
3.143102682E2	-7.972999811E-1	4.439999908E-2	-5.572999716E-1
3.153102682E2	-4.628999829E-1	3.370000049E-2	-2.694000006E-1
3.163102682E2	-2.694999874E-1	6.629999876E-1	-2.970999777E-1
3.173102682E2	-5.458999872E-1	2.016399860E0	-6.292999983E-1
3.183102682E2	-2.648999989E-1	8.950999975E-1	7.769999653E-2
3.193102682E2	5.799999833E-2	-2.802999914E-1	8.551999927E-1
3.203102682E2	7.732999921E-1	-1.222100019E0	5.784999728E-1
3.213102682E2	-1.597999930E-1	-4.948999882E-1	2.419899940E0
3.223102682E2	1.777999997E0	2.060000002E-1	-1.696200013E0
3.233102682E2	-7.515000105E-1	-1.030499935E0	-6.121999621E-1
3.243102682E2	6.269999743E-1	5.816999674E-1	-2.080000006E-2
3.253102682E2	5.414000154E-1	6.739000082E-1	-2.207499981E0
3.263102682E2	-1.880399942E0	2.077800035E0	5.657700062E0
3.273102682E2	3.312999904E-1	-2.027999908E-1	-5.996999741E0
3.283102682E2	-2.895999849E-1	1.960000023E-2	-1.276099920E0
3.293102682E2	1.041299939E0	4.411999881E-1	-3.241499901E0
3.303102682E2	1.225899935E0	-3.695999980E-1	2.346299887E0
3.313102682E2	9.692999721E-1	8.080999851E-1	2.165799856E0
3.323102682E2	-4.332999885E-1	1.038100004E0	2.119099855E0
3.333102682E2	8.159999549E-2	-5.127999783E-1	-1.709999919E0
3.343102682E2	6.740000099E-2	-5.260999799E-1	-7.931999564E-1
3.353102682E2	7.777000070E-1	2.036999911E-1	-1.398999929E0
3.363102682E2	6.143000126E-1	2.171999961E-1	-6.229999661E-2
3.373102682E2	4.271999896E-1	-6.193999648E-1	2.585799932E0
3.383102682E2	1.972000003E-1	9.749999642E-2	1.456799984E0
3.393102682E2	-1.857299924E0	4.175999761E-1	-5.238999724E-1
3.403102682E2	4.052999914E-1	-4.004999995E-1	2.169999927E-1
3.413102682E2	4.845999777E-1	1.241999939E-1	-2.633999884E-1
3.423102682E2	-7.689999789E-2	-2.908000052E-1	-1.158100009E0
3.433102682E2	-2.269999869E-2	-1.401000023E-1	1.889999956E-1
3.443102682E2	-2.264899969E0	3.597999811E-1	1.310299993E0
3.453102682E2	1.113199949E0	6.367999911E-1	6.523999572E-1
3.463102682E2	7.254999876E-1	-1.074900031E0	7.249999642E-1
3.473102682E2	4.901999831E-1	2.812999785E-1	-1.490599990E0
3.483102682E2	-7.303999662E-1	1.695999950E-1	4.750999808E-1
3.493102682E2	-2.124799967E0	1.026499987E0	1.554099917E0
3.503102682E2	9.750999808E-1	1.075999975E0	6.556999683E-1
3.513102682E2	1.797000021E-1	-6.618999839E-1	2.628399849E0
3.523102682E2	-7.339999676E-1	6.290000081E-1	5.121999979E-1
3.533102682E2	-9.501000047E-1	7.079999894E-2	-2.074999958E-1
3.543102682E2	7.608000040E-1	-2.567999959E-1	-1.388399959E0
3.553102682E2	7.155999541E-1	1.488000005E-1	-1.799399972E0
3.563102682E2	-1.912999898E-1	1.732999980E-1	2.685999870E-1
3.573102682E2	-8.472999930E-1	-4.083999991E-1	1.312600017E0
3.583102682E2	-5.024999976E-1	-1.507000029E-1	-1.166499972E0
3.593102682E2	7.925999761E-1	5.188999772E-1	-1.594000012E-1
3.603102682E2	8.285999894E-1	3.419999778E-2	-1.005699992E0
3.613102682E2	-3.643999994E-1	4.395999908E-1	-1.284999996E-1
3.623102682E2	-1.378700018E0	-2.190999985E-1	1.310099959E0
3.633102682E2	9.170999527E-1	4.329999909E-2	-1.823099971E0
3.643102682E2	1.677799940E0	-4.885999858E-1	-6.547999978E-1
3.653102682E2	3.735999763E-1	-3.449999988E-1	-2.797999978E-1
3.663102682E2	-8.409000039E-1	3.677999973E-1	8.014000058E-1
3.673102682E2	-2.052000016E-1	-1.225999966E-1	-4.217999876E-1
3.683102682E2	-5.099999718E-3	8.540999889E-1	1.166199923E0
3.693102682E2	8.799999952E-1	1.691000015E-1	-5.949999690E-1
3.703102682E2	4.852999747E-1	1.085899949E0	-1.289999962E0
3.713102682E2	-9.005999565E-1	-8.211999536E-1	1.165099978E0
3.723102682E2	5.554000139E-1	3.350999951E-1	-1.537899971E0
3.733102682E2	1.010699987E0	-5.426999927E-1	-1.499799967E0
3.743102682E2	7.886999846E-1	2.577999830E-1	-3.107100010E0
3.753102682E2	-8.222000003E-1	1.143999994E-1	9.896999598E-1
3.763102682E2	-7.074999809E-1	7.059999555E-2	4.704999924E-1
3.773102682E2	9.479999542E-1	8.919999748E-2	1.004999951E-1
3.783102682E2	9.451999664E-1	-3.379999846E-2	1.195999980E-1
3.793102682E2	-4.729999974E-2	1.816999912E-1	-1.102999926E0
3.803102682E2	-7.786999941E-1	-9.070000052E-2	-2.122099876E0
3.813102682E2	4.118999839E-1	2.426999956E-1	2.969999909E-1
3.823102682E2	1.068400025E0	-9.659999609E-1	2.002500057E0
3.833102682E2	6.911000013E-1	4.193999767E-1	-1.720399976E0
3.843102682E2	-2.827000022E-1	8.873999715E-1	-5.040000007E-2
3.853102682E2	-1.160099983E0	-2.769999951E-2	9.894999862E-1
3.863102682E2	2.635999918E-1	5.913999677E-1	7.299000025E-1
3.873102682E2	7.863000035E-1	-9.517999887E-1	-1.587799907E0
3.883102682E2	2.599999867E-2	4.883999825E-1	-9.995999932E-1
3.893102682E2	-1.456200004E0	4.822999835E-1	2.246999890E-1
3.903102682E2	-1.205799937E0	7.789999992E-2	-6.625999808E-1
3.913102682E2	4.617999792E-1	2.020999938E-1	9.686999917E-1
3.923102682E2	6.028000116E-1	-7.275999784E-1	8.104999661E-1
3.933102682E2	1.951999962E-1	1.322000027E-1	5.486999750E-1
3.943102682E2	-1.553699970E0	-4.329999909E-2	7.137999535E-1
3.953102682E2	-8.761999607E-1	4.323999882E-1	1.509299994E0
3.963102682E2	3.154999912E-1	-6.723999977E-1	1.685499907E0
3.973102682E2	6.302999854E-1	-6.857999563E-1	2.657999992E-1
3.983102682E2	-6.917999983E-1	6.617000103E-1	8.204999566E-1
3.993102682E2	1.569999941E-2	3.411999941E-1	4.456299782E0
4.003102682E2	5.835999846E-1	4.530999959E-1	6.631000042E-1
4.013102682E2	-7.433999777E-1	-6.527999640E-1	-1.729599953E0
4.023102682E2	2.545000017E-1	4.702000022E-1	5.509999767E-2
4.033102682E2	2.800999880E0	-1.309899926E0	6.286999583E-1
4.043102682E2	4.210000038E-1	5.667999983E-1	2.118999958E0
4.053102682E2	6.039999723E-1	4.400999844E-1	1.763599992E0
4.063102682E2	-1.921999902E-1	4.389999807E-1	4.131999910E-1
4.073102682E2	-5.407999754E-1	-3.676999807E-1	-4.540999830E-1
4.083102682E2	-1.668900013E0	-4.921000004E-1	-7.026999593E-1
4.093102682E2	6.553999782E-1	5.939999968E-2	-1.077899933E0
4.103102682E2	8.834999800E-1	1.163800001E0	-6.688999534E-1
4.113102682E2	2.236999869E-1	-7.256999612E-1	5.583999753E-1
4.123102682E2	8.766999841E-1	-1.018800020E0	1.158499956E0
4.133102682E2	3.252999783E-1	8.910999894E-1	-3.375999928E-1
4.143102682E2	-9.530999660E-1	-1.333999932E-1	-5.475999713E-1
4.153102682E2	-2.331199884E0	1.193000004E-1	-4.120000005E-1
4.163102682E2	-4.918999970E-1	-2.719999850E-1	1.774999946E-1
4.173102682E2	1.362999976E-1	8.084999919E-1	-8.276999593E-1
4.183102682E2	1.897999942E-1	3.470000029E-1	6.399999857E-1
4.193102682E2	2.540999949E-1	-9.298999906E-1	9.504999518E-1
4.203102682E2	3.888999820E-1	3.610999882E-1	2.379999906E-1
4.213102682E2	7.767999768E-1	7.297999859E-1	1.040199995E0
4.223102682E2	-5.191000104E-1	6.870000064E-2	2.125999928E-1
4.233102682E2	-1.954499960E0	2.447999865E-1	6.053000093E-1
4.243102682E2	-3.989999890E-1	3.443999887E-1	1.868099928E0
4.253102682E2	4.138999879E-1	-4.640999734E-1	-1.999999881E-1
4.263102682E2	7.231999636E-1	8.569999784E-2	-3.662099838E0
4.273102682E2	-2.247999907E-1	1.878999919E-1	2.533599854E0
4.283102682E2	-2.325999886E-1	8.297999501E-1	1.951099992E0
4.293102682E2	-1.782199979E0	-7.270000130E-2	6.327999830E-1
4.303102682E2	1.306999922E-1	6.350000203E-2	-4.166999757E-1
4.313102682E2	6.517999768E-1	5.802999735E-1	7.730999589E-1
4.323102682E2	1.197000027E0	-9.741999507E-1	-2.604999840E-1
4.333102682E2	4.943999946E-1	3.815999925E-1	2.383999974E-1
4.343102682E2	-4.619999826E-1	1.919000000E-1	1.364899993E0
4.353102682E2	-8.495000005E-1	-2.016000003E-1	-1.975799918E0
4.363102682E2	8.859999776E-1	6.380999684E-1	1.480000000E-2
4.373102682E2	7.208999991E-1	-2.920999825E-1	-1.004699945E0
4.383102682E2	1.032599926E0	-2.988999784E-1	3.876999915E-1
4.393102682E2	7.170999646E-1	-1.074000001E-1	-5.855000019E-1
4.403102682E2	-1.254400015E0	1.489000022E-1	2.426999956E-1
4.413102682E2	-1.956200004E0	5.690000057E-1	-1.030399919E0
4.423102682E2	8.982999921E-1	8.028999567E-1	5.720999837E-1
4.433102682E2	-3.559999913E-2	-4.508000016E-1	8.240000010E-1
4.443102682E2	6.183999777E-1	1.333999932E-1	-6.294999719E-1
4.453102682E2	-1.519999932E-2	5.098999739E-1	-1.425699949E0
4.463102682E2	-2.592000067E-1	5.641999841E-1	4.510999918E-1
4.473102682E2	5.568000078E-1	-8.783999681E-1	1.021199942E0
4.483102682E2	6.288999915E-1	-4.341999888E-1	5.949999765E-2
4.493102682E2	-2.317999899E-1	5.008000135E-1	1.327099919E0
4.503102682E2	2.236999869E-1	1.154199958E0	-1.310799956E0
4.513102682E2	-5.855000019E-1	4.834999740E-1	1.051499963E0
4.523102682E2	-7.645999789E-1	2.699999809E-1	-1.255999953E-1
4.533102682E2	-6.306999922E-1	-1.409999933E-2	-1.212299943E0
4.543102682E2	-1.668999940E-1	7.550999522E-1	7.222999930E-1
4.553102682E2	3.792999983E-1	7.396000028E-1	6.351000071E-1
4.563102682E2	1.116500020E0	-1.113099933E0	4.268999994E-1
4.573102682E2	2.742999792E-1	-2.421000004E-1	-6.735000014E-1
4.583102682E2	1.432999969E-1	2.096199989E0	-3.385399818E0
4.593102682E2	-4.477999806E-1	-9.453999996E-1	2.045099974E0
4.603102682E2	-5.286999941E-1	-3.766999841E-1	-8.928999901E-1
4.613102682E2	-8.192999959E-1	7.519999892E-2	2.148099899E0
4.623102682E2	3.759000003E-1	-4.554999769E-1	8.696999550E-1
4.633102682E2	-5.906000137E-1	3.434999883E-1	4.944299698E0
4.643102682E2	6.606999636E-1	6.599999964E-3	-3.831999898E-1
4.653102682E2	-8.664000034E-1	2.052999884E-1	1.145799994E0
4.663102682E2	3.899999894E-3	1.738999933E-1	-1.502699971E0
4.673102682E2	-5.501999855E-1	5.953999758E-1	1.820999980E-1
4.683102682E2	-4.800999761E-1	6.596999764E-1	-5.159000158E-1
4.693102682E2	-1.102299929E0	1.325099945E0	-1.137399912E0
4.703102682E2	-2.960999906E-1	1.913199902E0	-3.238999844E0
4.713102682E2	8.019999862E-1	-7.871999741E-1	9.939999878E-2
4.723102682E2	-2.310999930E-1	9.745999575E-1	4.205999970E-1
4.733102682E2	-4.670999944E-1	-2.281999886E-1	-6.013999581E-1
4.743102682E2	-1.309999973E-1	1.851999909E-1	7.019999623E-2
4.753102682E2	3.900000080E-2	1.949999928E-1	1.542000026E-1
4.763102682E2	-4.999999655E-4	1.648000032E-1	1.853999943E-1
4.773102682E2	-4.065999985E-1	7.599999756E-2	-7.999999798E-4
4.783102682E2	1.150000002E-2	2.662000060E-1	2.581000030E-1
4.793102682E2	7.319999486E-2	6.989999861E-2	1.691000015E-1
4.803102682E2	-1.158000007E-1	9.179999679E-2	4.541999996E-1
4.813102682E2	5.119999871E-2	2.775000036E-1	1.169999968E-2
4.823102682E2	2.620000020E-2	2.346999943E-1	1.561999917E-1
4.833102682E2	-2.809999883E-2	3.000000026E-3	9.059999883E-2
4.843102682E2	-2.529999986E-2	1.297999918E-1	3.210999966E-1
4.853102682E2	-2.703999877E-1	2.628999949E-1	3.366000056E-1
4.863102682E2	1.493999958E-1	1.977999955E-1	-2.689999901E-2
4.873102682E2	-5.900000036E-2	-7.199999876E-3	1.777999997E-1
4.883102682E2	5.859999731E-2	2.578999996E-1	1.300000004E-3
4.893102682E2	-6.699999794E-3	2.974999845E-1	-2.840000018E-2
4.903102682E2	-9.459999949E-2	1.159999967E-1	-3.429999948E-2
4.913102682E2	1.097999960E-1	1.889999956E-1	4.011999965E-1
4.923102682E2	6.459000111E-1	-2.050999999E-1	-5.869999900E-2
4.933102682E2	7.881000042E-1	2.078000009E-1	1.795099974E0
4.943102682E2	-1.011199951E0	1.096799970E0	-5.439000130E-1
4.953102682E2	-2.640999854E-1	9.669999778E-2	-5.586000085E-1
4.963102682E2	2.069999874E-1	-9.284999967E-1	1.554899931E0
4.973102682E2	-1.381699920E0	-8.630000055E-2	2.243000031E0
4.983102682E2	6.843999624E-1	-2.351999879E-1	-5.279999971E-1
4.993102682E2	1.717000008E-1	-1.456599951E0	6.791999936E-1
5.003102682E2	-1.678999901E0	7.874000072E-1	6.460999846E-1
5.013102682E2	4.694999754E-1	5.979999900E-2	6.592000127E-1
5.023102682E2	-2.254000008E-1	-1.343400002E0	1.258899927E0
5.033102682E2	1.641999930E-1	-1.826999933E-1	2.259999886E-2
5.043102682E2	5.694999695E-1	-4.154999852E-1	7.017999887E-1
5.053102682E2	-1.779000014E-1	6.528999805E-1	-1.428300023E0
5.063102682E2	-9.298999906E-1	-1.498000026E-1	4.764999747E-1
5.073102682E2	-6.161000133E-1	-4.303999841E-1	3.499999940E-1
5.083102682E2	1.141199946E0	1.594799995E0	-3.642999887E0
5.093102682E2	3.091999888E-1	3.104999959E-1	-4.959999770E-2
5.103102682E2	8.210999966E-1	-4.825999737E-1	-3.594000041E-1
5.113102682E2	6.861999631E-1	-2.561999857E-1	2.432999909E-1
5.123102682E2	4.529999793E-1	5.740999579E-1	-3.619999811E-2
5.133102682E2	-2.768999934E-1	4.153999984E-1	1.079999935E-2
5.143102682E2	-6.601999998E-1	-1.317999959E-1	1.056599975E0
5.153102682E2	3.195999861E-1	5.591999888E-1	-1.301599979E0
5.163102682E2	-6.199999712E-3	3.755999804E-1	-1.376699924E0
5.173102682E2	5.551999807E-1	1.779000014E-1	1.332999915E-1
5.183102682E2	6.567999721E-1	7.094999552E-1	-1.231400013E0
5.193102682E2	-2.003999949E-1	5.940999985E-1	8.180999756E-1
5.203102682E2	1.182899952E0	-5.026000142E-1	8.199999481E-2
5.213102682E2	2.101999968E-1	-4.113000035E-1	-1.744999886E-1
5.223102682E2	1.994999945E-1	2.836000025E-1	-3.807999790E-1
5.233102682E2	-4.807999730E-1	-9.257999659E-1	8.872999549E-1
5.243102682E2	1.069299936E0	-3.570000082E-2	-1.581399918E0
5.253102682E2	9.003999829E-1	5.151000023E-1	-1.760399938E0
5.263102682E2	7.749999762E-1	1.929999888E-1	-1.047500014E0
5.273102682E2	-4.000999928E-1	-1.612000018E-1	4.951999784E-1
5.283102682E2	-9.003999829E-1	-1.860999912E-1	-6.556000113E-1
5.293102682E2	-5.055999756E-1	-2.093999982E-1	1.716599941E0
5.303102682E2	-1.501999944E-1	-6.469999999E-2	7.954999804E-1
5.313102682E2	-2.440999895E-1	2.567999959E-1	9.511999488E-1
5.323102682E2	3.414999843E-1	2.680000067E-1	-2.840000018E-2
5.333102682E2	8.115999699E-1	1.197999939E-1	-3.299999982E-3
5.343102682E2	7.464999557E-1	-7.199999690E-2	1.733999997E-1
5.353102682E2	2.498999983E-1	-1.590999961E-1	-4.818999767E-1
5.363102682E2	-1.141700029E0	-2.169999927E-1	-6.873999834E-1
5.373102682E2	-1.017199993E0	5.977999568E-1	-1.110499978E0
5.383102682E2	-2.219000012E-1	7.026000023E-1	3.386799812E0
5.393102682E2	-1.994999945E-1	-6.254999638E-1	1.685999990E0
5.403102682E2	3.325999975E-1	-8.904999495E-1	-2.036799908E0
5.413102682E2	-1.212999970E-1	1.476999968E-1	1.015100002E0
5.423102682E2	1.719999872E-2	3.553999960E-1	-9.537999630E-1
5.433102682E2	-1.757099986E0	-1.050300002E0	2.520099878E0
5.443102682E2	-2.056499958E0	-5.537999868E-1	2.303400040E0
5.453102682E2	-5.105000138E-1	1.019999981E-1	3.689000010E-1
5.463102682E2	7.365999818E-1	3.125000000E-1	-6.873999834E-1
5.473102682E2	3.021999896E-1	2.820000052E-1	7.489999533E-1
5.483102682E2	4.123999774E-1	2.609999850E-2	-1.952999979E-1
5.493102682E2	7.024999857E-1	1.686999947E-1	-1.855499983E0
5.503102682E2	-8.522999883E-1	3.032000065E-1	1.494699955E0
5.513102682E2	6.162999868E-1	3.529999852E-1	5.684999824E-1
5.523102682E2	2.113999873E-1	-1.363999993E-1	5.126000047E-1
5.533102682E2	-9.171999693E-1	-3.145999908E-1	-3.355000019E-1
5.543102682E2	3.222999871E-1	-5.303999782E-1	-2.334999889E-1
5.553102682E2	-9.118999839E-1	3.149999976E-1	4.548199654E0
5.563102682E2	3.736999929E-1	3.939999938E-1	3.513999879E-1
5.573102682E2	7.253999710E-1	1.659999974E-2	1.626299977E0
5.583102682E2	3.191999793E-1	-3.589999974E-1	7.849999666E-1
5.593102682E2	7.759999633E-1	3.091999888E-1	-6.682999730E-1
5.603102682E2	9.249999523E-1	-8.500000089E-2	-5.723999739E-1
5.613102682E2	-1.817999929E-1	-2.254499912E0	-6.605000019E0
5.623102682E2	-1.265100002E0	-1.077999994E-1	7.419999838E-1
5.633102682E2	1.084200025E0	-4.861999750E-1	-3.863999844E-1
5.643102682E2	-3.962999880E-1	-1.787000000E-1	5.321999788E-1
5.653102682E2	-9.320999980E-1	-2.665999830E-1	-1.179999948E0
5.663102682E2	8.037999868E-1	-1.209999993E-2	-1.240700006E0
5.673102682E2	9.192999601E-1	1.755999923E-1	4.393999875E-1
5.683102682E2	1.363600016E0	-7.285000086E-1	-1.270999908E-1
5.693102682E2	-2.265999913E-1	-1.735000014E-1	1.819899917E0
5.703102682E2	4.789999872E-2	2.111999989E-1	-7.169999927E-2
5.713102682E2	-6.545000076E-1	4.984999895E-1	6.941999793E-1
5.723102682E2	-3.731999993E-1	4.108999968E-1	4.651999772E-1
5.733102682E2	-1.445799947E0	-7.393999696E-1	1.710299969E0
5.743102682E2	9.163999557E-1	2.791999876E-1	-6.994999647E-1
5.753102682E2	1.751500010E0	1.019600034E0	-2.439800024E0
5.763102682E2	3.820999861E-1	1.086799979E0	3.634999990E0
5.773102682E2	5.138999820E-1	-4.930000007E-1	7.160999775E-1
5.783102682E2	6.446999907E-1	-3.219999745E-2	-9.044999480E-1
5.793102682E2	2.410000004E-2	6.719999760E-2	-1.249099970E0
5.803102682E2	1.837199926E0	-9.885999560E-1	-1.002999991E-1
5.813102682E2	-1.669999957E-1	2.665999830E-1	1.267899990E0
5.823102682E2	8.161999583E-1	7.019999623E-2	-2.558999956E-1
5.833102682E2	4.948000014E-1	5.580999851E-1	3.834999800E-1
5.843102682E2	-3.700000001E-3	-4.360999763E-1	2.120800018E0
5.853102682E2	2.606000006E-1	5.499999970E-3	-1.533000022E-1
5.863102682E2	8.396999836E-1	8.689999580E-2	-1.687500000E0
5.873102682E2	1.129599929E0	3.547999859E-1	-1.607599974E0
5.883102682E2	-2.119999975E-1	1.789999902E-1	7.433999777E-1
5.893102682E2	-6.961999536E-1	8.817999959E-1	-1.588499904E0
5.903102682E2	-1.649699926E0	-1.624499917E0	7.534999847E0
5.913102682E2	-7.823999524E-1	1.463400006E0	8.119999617E-2
5.923102682E2	1.110999957E-1	-2.009999901E-1	-1.247799993E0
5.933102682E2	-8.938999772E-1	-1.620199919E0	3.235399961E0
5.943102682E2	-3.544999957E-1	-1.630000025E-1	2.077600002E0
5.953102682E2	1.344999969E-1	1.083500028E0	1.978199959E0
5.963102682E2	1.748600006E0	-9.323999882E-1	9.002999663E-1
5.973102682E2	-4.749999940E-2	7.695999742E-1	4.416999817E-1
5.983102682E2	-2.210000008E-1	2.268999964E-1	2.346999943E-1
5.993102682E2	1.547999978E-1	1.023900032E0	2.419999987E-2
6.003102682E2	-1.570699930E0	4.513999820E-1	4.501999915E-1
6.013102682E2	5.173000097E-1	-3.225999773E-1	-5.575000048E-1
6.023102682E2	8.463999629E-1	-4.544000030E-1	-1.372299910E0
6.033102682E2	-1.499699950E0	7.319999933E-1	2.879999876E-1
6.043102682E2	-1.237499952E0	-1.384999901E-1	-3.984999955E-1
6.053102682E2	-1.393199921E0	1.085500002E0	7.629999518E-1
6.063102682E2	-2.032199860E0	-9.017999768E-1	2.851799965E0
6.073102682E2	-7.738999724E-1	4.490000010E-1	9.669999778E-2
6.083102682E2	5.130999684E-1	-4.353999794E-1	-3.770999908E-1
6.093102682E2	1.025200009E0	2.403999865E-1	-1.665599942E0
6.103102682E2	8.582999706E-1	-4.377000034E-1	7.439000010E-1
6.113102682E2	8.896999955E-1	9.899999946E-2	-2.649999969E-2
6.123102682E2	-7.967999578E-1	2.549999952E-2	1.016700029E0
6.133102682E2	-6.815999746E-1	2.551999986E-1	-3.793999851E-1
6.143102682E2	-1.024699926E0	4.299999774E-1	2.474900007E0
6.153102682E2	-6.331999898E-1	-1.076900005E0	3.788199902E0
6.163102682E2	9.724999666E-1	9.637999535E-1	-1.371199965E0
6.173102682E2	-4.824999869E-1	1.030699968E0	-1.117900014E0
6.183102682E2	8.761999607E-1	8.123999834E-1	-1.084399939E0
6.193102682E2	-8.248999715E-1	3.509999812E-1	1.363600016E0
6.203102682E2	-1.008700013E0	-8.280999660E-1	6.104999781E-1
6.213102682E2	-1.518299937E0	-7.539999485E-2	2.784999907E-1
6.223102682E2	-3.089999855E-1	-4.230000079E-2	4.350000024E-1
6.233102682E2	1.770000011E-1	1.714999974E-1	6.915000081E-1
6.243102682E2	7.196999788E-1	9.397999644E-1	-8.500999808E-1
6.253102682E2	1.106400013E0	5.451999903E-1	-9.971999526E-1
6.263102682E2	5.005999804E-1	-9.167000055E-1	7.525999546E-1
6.273102682E2	1.072600007E0	-1.989999972E-2	-3.472999930E-1
6.283102682E2	5.166000128E-1	-9.124999642E-1	9.695000052E-1
6.293102682E2	-8.309999853E-2	-3.080999851E-1	-1.145599961E0
6.303102682E2	-1.210999936E-1	-2.017000020E-1	-1.464800000E0
6.313102682E2	-1.050899982E0	-1.855999976E-1	1.627399921E0
6.323102682E2	-1.311499953E0	5.990999937E-1	4.939000010E-1
6.333102682E2	-9.774000049E-1	3.623999953E-1	1.204599977E0
6.343102682E2	1.420999914E-1	4.632000029E-1	-1.797000021E-1
6.353102682E2	8.398000002E-1	7.703999877E-1	-1.150599957E0
6.363102682E2	9.560999870E-1	-5.622000098E-1	-1.680999994E-1
6.373102682E2	7.755999565E-1	-2.620000020E-2	-2.372900009E0
6.383102682E2	6.111999750E-1	-4.306999743E-1	1.657499909E0
6.393102682E2	-5.850999951E-1	-3.939999938E-1	4.257599831E0
6.403102682E2	-5.199999735E-2	1.085099936E0	-7.773999572E-1
6.413102682E2	5.519999936E-2	8.055999875E-1	8.276999593E-1
6.423102682E2	-7.100000046E-3	3.594000041E-1	2.351000011E-1
6.433102682E2	8.183999658E-1	1.194999933E0	-4.579999745E-1
6.443102682E2	2.654999793E-1	4.754000008E-1	-2.135799885E0
6.453102682E2	-2.043000013E-1	1.550400019E0	-9.763999581E-1
6.463102682E2	4.445999861E-1	2.454999983E-1	1.069299936E0
6.473102682E2	1.069999952E-2	3.490999937E-1	-1.914999932E-1
6.483102682E2	-4.593999982E-1	2.630999982E-1	5.157999992E-1
6.493102682E2	-8.148999810E-1	3.953999877E-1	4.406999946E-1
6.503102682E2	-1.899699926E0	7.479000092E-1	-1.742199898E0
6.513102682E2	-1.827999949E0	4.491999745E-1	1.192399979E0
6.523102682E2	-7.620000094E-2	2.549999952E-2	-8.682999611E-1
6.533102682E2	8.872999549E-1	1.489999983E-2	-6.934999824E-1
6.543102682E2	-1.299999952E-1	1.869999990E-2	2.119600058E0
6.553102682E2	8.116999865E-1	-3.335999846E-1	4.719999805E-2
6.563102682E2	7.728999853E-1	-7.314999700E-1	-1.300999969E-1
6.573102682E2	-1.808999926E-1	1.794999987E-1	1.225099921E0
6.583102682E2	-1.574399948E0	1.265999973E-1	4.915999770E-1
6.593102682E2	-7.728999853E-1	-3.553999960E-1	1.086999997E-1
6.603102682E2	6.004999876E-1	5.722000003E-1	-1.445899963E0
6.613102682E2	6.843000054E-1	-1.256099939E0	1.724099994E0
6.623102682E2	4.232999980E-1	-4.084999859E-1	1.074499965E0
6.633102682E2	-9.559999406E-2	9.618999958E-1	5.379999876E-1
6.643102682E2	-5.963000059E-1	1.007300019E0	2.531000078E-1
6.653102682E2	-9.515999556E-1	-1.239999980E-1	8.109999895E-1
6.663102682E2	-7.028999925E-1	-5.139999837E-2	-3.687999845E-1
6.673102682E2	-4.144999981E-1	6.276999712E-1	-8.915999532E-1
6.683102682E2	-4.699999932E-3	7.906999588E-1	-2.935999930E-1
6.693102682E2	9.760999680E-1	-7.734000087E-1	9.942999482E-1
6.703102682E2	1.027099967E0	-1.025099993E0	4.023999870E-1
6.713102682E2	6.635000110E-1	-1.817999929E-1	6.868999600E-1
6.723102682E2	5.611000061E-1	-1.054499984E0	2.387300014E0
6.733102682E2	-9.369999915E-2	8.201999664E-1	-4.125999808E-1
6.743102682E2	-2.143999934E-1	6.141999960E-1	1.124799967E0
6.753102682E2	-2.504000068E-1	5.174999833E-1	6.520000100E-2
6.763102682E2	-5.442000031E-1	-4.600000102E-3	8.460000157E-2
6.773102682E2	-1.663499951E0	3.149999976E-1	-8.256999850E-1
6.783102682E2	-1.452199936E0	1.774999946E-1	9.517999887E-1
6.793102682E2	8.091999888E-1	2.360000014E-1	-3.712999821E-1
6.803102682E2	6.425999999E-1	-1.913999915E-1	-3.555999994E-1
6.813102682E2	5.446000099E-1	-3.949999809E-2	-1.898999959E-1
6.823102682E2	7.088999748E-1	-1.158999950E-1	-2.339999974E-1
6.833102682E2	-5.029000044E-1	1.678999960E-1	6.969999671E-1
6.843102682E2	-8.215000033E-1	-1.999999949E-4	2.260999978E-1
6.853102682E2	-1.137399912E0	3.656999767E-1	3.658999801E-1
6.863102682E2	3.449999988E-1	-1.999999955E-2	-2.518000007E-1
6.873102682E2	5.446999669E-1	-4.280000031E-1	6.410999894E-1
6.883102682E2	-2.050999999E-1	-1.014999971E-1	1.008100033E0
6.893102682E2	-5.259000063E-1	2.065999955E-1	2.050099850E0
6.903102682E2	-3.007999957E-1	4.097999930E-1	5.541999936E-1
6.913102682E2	-1.148599982E0	1.120999977E-1	-8.649999648E-2
6.923102682E2	-1.054199934E0	-2.619999945E-1	-4.687999785E-1
6.933102682E2	-9.595999718E-1	2.259999961E-1	-3.288999796E-1
6.943102682E2	-1.139999926E-2	-3.179999813E-2	-9.349999577E-2
6.953102682E2	-1.642999947E-1	3.779999912E-1	-2.578999996E-1
6.963102682E2	-7.899999619E-3	2.559999935E-2	6.459000111E-1
6.973102682E2	6.071000099E-1	5.769999698E-2	3.055000007E-1
6.983102682E2	-9.101999998E-1	9.356999993E-1	-1.246999949E-1
6.993102682E2	1.017400026E0	1.420000009E-2	-1.171800017E0
7.003102682E2	1.651199937E0	-1.093999982E0	-2.137999982E-1
7.013102682E2	8.963999748E-1	-3.880999982E-1	-1.129999980E-1
7.023102682E2	1.050999984E-1	-1.960999966E-1	1.370599985E0
7.033102682E2	8.069999814E-1	2.658999860E-1	-1.405900002E0
7.043102682E2	4.287000000E-1	2.094999999E-1	-2.241299868E0
7.053102682E2	6.263999939E-1	7.321999669E-1	-1.094599962E0
7.063102682E2	-1.263899922E0	-1.554999948E-1	6.915999651E-1
7.073102682E2	-1.513299942E0	4.708999991E-1	-1.286499977E0
7.083102682E2	-1.725699902E0	3.750000000E-1	1.560699940E0
7.093102682E2	9.294999838E-1	1.304000020E-1	-1.156000018E0
7.103102682E2	9.029999971E-1	-4.299999680E-3	4.093999863E-1
7.113102682E2	1.266699910E0	-6.653000116E-1	-2.219099998E0
7.123102682E2	3.828999996E-1	-1.420000009E-2	-3.103999794E-1
7.133102682E2	-1.001999974E-1	-1.990000010E-1	6.500999928E-1
7.143102682E2	1.234899998E0	-3.725000024E-1	4.998999834E-1
7.153102682E2	-2.836999893E-1	3.756999969E-1	8.509999514E-1
7.163102682E2	1.650999933E-1	7.563999891E-1	-2.030099869E0
7.173102682E2	6.439999491E-2	3.791999817E-1	-1.968799949E0
7.183102682E2	-1.387999952E-1	-1.549999975E-2	1.193400025E0
7.193102682E2	3.835999966E-1	-2.849999964E-1	2.951000035E-1
7.203102682E2	-5.256000161E-1	1.626999974E-1	6.109999865E-2
7.213102682E2	-6.999999750E-4	3.959999979E-2	-8.754999638E-1
7.223102682E2	-3.140999973E-1	-4.977999926E-1	-3.109999932E-2
7.233102682E2	3.319000006E-1	7.874999642E-1	-1.870099902E0
7.243102682E2	-2.129999921E-2	-2.547000051E-1	1.852099895E0
7.253102682E2	7.548999786E-1	1.736999899E-1	-1.372499943E0
7.263102682E2	-5.505999923E-1	2.486999929E-1	-1.886599898E0
7.273102682E2	-1.269000024E-1	-4.037999809E-1	1.194800019E0
7.283102682E2	9.724999666E-1	-3.500999808E-1	-4.188999832E-1
7.293102682E2	5.036999583E-1	-6.699000001E-1	1.370999932E0
7.303102682E2	6.408999562E-1	3.366000056E-1	4.789999872E-2
7.313102682E2	-3.057000041E-1	7.930999994E-1	1.907999963E-1
7.323102682E2	-7.315999866E-1	-4.270000011E-2	5.746999979E-1
7.333102682E2	-1.462299943E0	6.099999882E-3	9.849999845E-2
7.343102682E2	-1.430999994E0	6.179000139E-1	-4.580999911E-1
7.353102682E2	1.231099963E0	-2.134999931E-1	-7.971000075E-1
7.363102682E2	3.741999865E-1	5.760999918E-1	5.918999910E-1
7.373102682E2	9.689999819E-1	-8.779000044E-1	-4.648000002E-1
7.383102682E2	8.409999609E-1	-3.947999775E-1	-3.509999812E-2
7.393102682E2	-4.833000004E-1	-3.568999767E-1	1.678499937E0
7.403102682E2	3.269000053E-1	3.840999901E-1	5.187999606E-1
7.413102682E2	-1.950000040E-2	-1.375299931E0	6.602900028E0
7.423102682E2	-3.025999963E-1	-3.999999724E-3	1.107200027E0
7.433102682E2	-2.289599895E0	4.265999794E-1	1.391499996E0
7.443102682E2	-1.770000011E-1	-1.869999915E-1	-1.270000041E-1
7.453102682E2	7.006999850E-1	3.376999795E-1	3.830000013E-2
7.463102682E2	1.690899968E0	-1.679999940E-2	1.839499950E0
7.473102682E2	1.970000006E-2	3.746999800E-1	-1.973399997E0
7.483102682E2	3.596999943E-1	-8.199999481E-2	-2.047299862E0
7.493102682E2	7.202000022E-1	-4.210999906E-1	8.819999546E-2
7.503102682E2	3.130000085E-2	-1.869999915E-1	1.388999969E-1
7.513102682E2	8.664999604E-1	2.559999935E-2	2.387999892E-1
7.523102682E2	-5.647000074E-1	3.728999794E-1	5.151000023E-1
7.533102682E2	3.878999949E-1	5.849999934E-2	-1.427299976E0
7.543102682E2	-1.383899927E0	1.826999933E-1	-1.144999936E-1
7.553102682E2	-4.086999893E-1	4.440999925E-1	6.238999963E-1
7.563102682E2	7.886999846E-1	-9.349999577E-2	-1.000100017E0
7.573102682E2	8.912000060E-1	6.128999591E-1	-1.614399910E0
7.583102682E2	2.599999867E-2	-3.285000026E-1	1.042599916E0
7.593102682E2	-8.980000019E-2	-8.299999870E-3	5.370999575E-1
7.603102682E2	-9.210999608E-1	5.737999678E-1	2.152999938E-1
7.613102682E2	5.324000120E-1	-1.017999947E-1	9.096999764E-1
7.623102682E2	1.189999953E-1	3.771999776E-1	4.545999765E-1
7.633102682E2	1.292999983E-1	-7.660000026E-2	8.772000074E-1
7.643102682E2	-1.992999911E-1	-7.400000095E-2	-4.089999795E-1
7.653102682E2	-1.538999975E-1	-8.659999967E-1	1.784099936E0
7.663102682E2	-2.449999936E-2	-5.536000133E-1	9.502999783E-1
7.673102682E2	1.458599925E0	5.073999763E-1	-1.293399930E0
7.683102682E2	4.800999761E-1	-1.503600001E0	-1.305699944E0
7.693102682E2	1.815999895E-1	1.841999888E-1	-2.057499886E0
7.703102682E2	1.745999902E-1	8.419999480E-2	4.986999929E-1
7.713102682E2	1.274699926E0	3.664999902E-1	-9.723999500E-1
7.723102682E2	-4.721999764E-1	-3.046000004E-1	3.350999951E-1
7.733102682E2	5.117999911E-1	-3.990999758E-1	-8.387999535E-1
7.743102682E2	-2.089999914E-1	5.999999703E-4	-3.791999817E-1
7.753102682E2	4.217999876E-1	6.685999632E-1	-9.672999978E-1
7.763102682E2	1.815000027E-1	1.692999899E-1	2.055099964E0
7.773102682E2	-5.313000083E-1	-4.426999986E-1	5.006999969E-1
7.783102682E2	1.062999964E-1	4.776999950E-1	2.081999928E-1
7.793102682E2	5.219999701E-2	3.034999967E-1	-3.003999889E-1
7.803102682E2	-2.865999937E-1	-8.391999602E-1	-6.912999749E-1
7.813102682E2	-8.924999833E-1	-1.836999953E-1	1.178200006E0
7.823102682E2	-1.970000006E-2	-3.450999856E-1	-3.729999810E-2
7.833102682E2	-4.284999967E-1	2.036999911E-1	5.446000099E-1
7.843102682E2	1.623999923E-1	-2.361999899E-1	1.096699953E0
7.853102682E2	-6.755999923E-1	-8.049999923E-2	7.019999623E-1
7.863102682E2	-1.049999952E0	9.045999646E-1	-3.610000014E-2
7.873102682E2	-1.112699986E0	5.702999830E-1	-1.142699957E0
7.883102682E2	-1.253499985E0	-3.319999874E-1	1.868199944E0
7.893102682E2	4.287999868E-1	-4.427999854E-1	8.012999892E-1
7.903102682E2	6.489999890E-1	-3.461999893E-1	6.284999847E-1
7.913102682E2	3.953999877E-1	-5.144999623E-1	4.386999905E-1
7.923102682E2	3.962999880E-1	1.909999996E-1	-8.585000038E-1
7.933102682E2	-1.012499928E0	-9.300000034E-3	2.207099915E0
7.943102682E2	-3.892000020E-1	5.649999902E-2	-2.517499924E0
7.953102682E2	1.009299994E0	6.489999592E-2	-1.130599976E0
7.963102682E2	4.271999896E-1	-4.532999992E-1	2.112299919E0
7.973102682E2	4.749999940E-2	-4.979999736E-2	5.365999937E-1
7.983102682E2	2.360999882E-1	-5.267999768E-1	4.940999746E-1
7.993102682E2	1.595999897E-1	-5.076000094E-1	2.228299856E0
8.003102682E2	2.732000053E-1	-6.839999557E-2	7.683999538E-1
8.013102682E2	7.850999832E-1	-2.883999944E-1	4.550999999E-1
8.023102682E2	1.230799913E0	1.261999905E-1	-9.851999879E-1
8.033102682E2	5.505999923E-1	-6.300000101E-2	6.524999738E-1
8.043102682E2	2.087999880E-1	-3.043999970E-1	-3.391000032E-1
8.053102682E2	-1.576000005E-1	6.542999744E-1	-2.163999975E-1
8.063102682E2	-8.349999785E-1	-1.694999933E-1	-3.322999775E-1
8.073102682E2	-1.354900002E0	4.214999974E-1	-8.950999975E-1
8.083102682E2	5.453999639E-1	6.459000111E-1	5.841999650E-1
8.093102682E2	2.834999859E-1	1.305000037E-1	8.940999508E-1
8.103102682E2	1.488199949E0	-7.551999688E-1	1.510999948E-1
8.113102682E2	4.851000011E-1	-3.879999816E-1	9.150999784E-1
8.123102682E2	6.557999849E-1	3.143000007E-1	-4.208999872E-1
8.133102682E2	-1.524999976E0	-1.026999950E-1	2.619299889E0
8.143102682E2	-8.093000054E-1	-1.197999939E-1	3.473999798E-1
8.153102682E2	1.157999992E0	-8.131999969E-1	1.153999940E-1
8.163102682E2	6.901999712E-1	-6.983999610E-1	7.457000017E-1
8.173102682E2	6.065999866E-1	-3.050000072E-1	-1.152699947E0
8.183102682E2	-5.089999735E-2	4.426999986E-1	-5.164999962E-1
8.193102682E2	-1.869099975E0	-1.113199949E0	1.130739975E1
8.203102682E2	1.242499948E0	2.080000006E-2	-3.537400007E0
8.213102682E2	4.144999981E-1	-4.256999791E-1	2.700099945E0
8.223102682E2	-6.340000033E-2	-7.073000073E-1	2.425699949E0
8.233102682E2	-1.445400000E0	7.059999704E-1	-2.623999834E0
8.243102682E2	-8.503999710E-1	7.192999721E-1	-1.790499926E0
8.253102682E2	2.759999968E-2	-1.899999939E-2	7.976999879E-1
8.263102682E2	1.195999980E-1	-1.544999927E-1	2.043000013E-1
8.273102682E2	-1.426100016E0	-8.558999896E-1	1.712099910E0
8.283102682E2	2.175000012E-1	1.072999984E-1	-2.711299896E0
8.293102682E2	1.074199915E0	9.605000019E-1	-3.076999903E0
8.303102682E2	5.400999784E-1	-5.056999922E-1	2.553900003E0
8.313102682E2	-1.099999994E-2	6.305999756E-1	-1.352199912E0
8.323102682E2	-7.321000099E-1	4.562999904E-1	-8.357999921E-1
8.333102682E2	-1.049499989E0	2.452999949E-1	1.777699947E0
8.343102682E2	1.288100004E0	-1.009099960E0	-6.718999743E-1
8.353102682E2	3.391000032E-1	-1.499999911E-1	-3.151299953E0
8.363102682E2	-2.005399942E0	-6.117999554E-1	3.475699902E0
8.373102682E2	2.179800034E0	9.673999548E-1	-2.138499975E0
8.383102682E2	-4.044999778E-1	-3.418999910E-1	6.520000100E-1
8.393102682E2	-1.394599915E0	1.245299935E0	-1.817799926E0
8.403102682E2	-1.059800029E0	-1.253099918E0	2.548599958E0
8.413102682E2	8.906999826E-1	1.134999990E0	-1.998699903E0
8.423102682E2	-2.899000049E-1	-1.703999937E-1	-6.908000112E-1
8.433102682E2	-3.761000037E-1	2.313999981E-1	5.708999634E-1
8.443102682E2	-2.907699823E0	-8.310999870E-1	5.550600052E0
8.453102682E2	-1.347000003E0	4.447000027E-1	1.175400019E0
8.463102682E2	2.052999884E-1	-8.660999537E-1	3.995999813E0
8.473102682E2	5.321999788E-1	-2.460999936E-1	-1.342999935E0
8.483102682E2	-1.184800029E0	-1.571999937E-1	2.198999971E-1
8.493102682E2	-5.164999962E-1	-9.878000021E-1	-1.305799961E0
8.503102682E2	-5.769000053E-1	2.427999973E-1	-2.292299986E0
8.513102682E2	1.427699924E0	1.327700019E0	-4.461299896E0
8.523102682E2	-2.545999885E-1	-5.113999844E-1	2.418099880E0
8.533102682E2	1.951399922E0	-6.818999648E-1	-1.366099954E0
8.543102682E2	5.460000038E-2	9.431999922E-1	1.621000022E-1
8.553102682E2	1.299999952E-1	2.779099941E0	-2.214599848E0
8.563102682E2	-1.149999946E-1	7.050999999E-1	-3.389999866E-1
8.573102682E2	8.429999650E-2	-2.063999921E-1	2.181599855E0
8.583102682E2	4.348999858E-1	2.475999892E-1	1.799899936E0
8.593102682E2	1.579800010E0	-1.946000010E-1	4.056999981E-1
8.603102682E2	1.140200019E0	3.028999865E-1	-2.335999906E-1
8.613102682E2	6.524999738E-1	-2.509000003E-1	-6.517999768E-1
8.623102682E2	-7.085999846E-1	6.164999604E-1	2.215899944E0
8.633102682E2	-1.714999914E0	-1.693999916E-1	4.475999773E-1
8.643102682E2	-1.841799974E0	1.661999971E-1	8.039000034E-1
8.653102682E2	9.030000120E-2	1.124300003E0	7.949999720E-2
8.663102682E2	2.690199852E0	-2.390499830E0	1.904599905E0
8.673102682E2	3.015999794E-1	-3.468999863E-1	-4.975999892E-1
8.683102682E2	6.636999846E-1	7.366999984E-1	-1.606999993E0
8.693102682E2	-1.295799971E0	-3.071999848E-1	8.481999636E-1
8.703102682E2	-1.703699946E0	1.580999941E-1	2.795799971E0
8.713102682E2	2.422499895E0	1.133399963E0	-6.398200035E0
8.723102682E2	1.486799955E0	3.853999972E-1	-5.672199726E0
8.733102682E2	-9.889999777E-2	8.012999892E-1	-1.376899958E0
8.743102682E2	4.065999985E-1	-1.748999953E0	4.240299702E0
8.753102682E2	1.159600019E0	5.419999734E-2	-2.033900023E0
8.763102682E2	2.447299957E0	1.101400018E0	-4.200999737E0
8.773102682E2	3.838000000E-1	-9.914000034E-1	2.342299938E0
8.783102682E2	-4.432999790E-1	3.526999950E-1	-3.878999949E-1
8.793102682E2	-2.945999801E-1	-4.184999764E-1	2.541499853E0
8.803102682E2	-3.222999871E-1	-2.245399952E0	2.214200020E0
8.813102682E2	1.051999927E0	-2.518999875E-1	-3.421999812E-1
8.823102682E2	-4.698999822E-1	-3.050000072E-1	-7.195999622E-1
8.833102682E2	9.459999800E-1	-3.852999806E-1	-7.807999849E-1
8.843102682E2	3.236999810E-1	-1.984999925E-1	-3.037600040E0
8.853102682E2	3.188999891E-1	1.873999983E-1	1.461499929E0
8.863102682E2	1.070000008E-1	-7.886999846E-1	2.106999904E-1
8.873102682E2	5.066999793E-1	-3.359999880E-2	6.208999753E-1
8.883102682E2	-1.180999950E-1	8.129999787E-2	-1.435099959E0
8.893102682E2	8.028999567E-1	1.413599968E0	-1.561999917E0
8.903102682E2	-4.778999984E-1	-1.313000023E-1	2.045799971E0
8.913102682E2	7.580000162E-2	-1.405999959E-1	9.849999547E-1
8.923102682E2	2.489999868E-2	5.491999984E-1	-1.915599942E0
8.933102682E2	3.028999865E-1	-1.784999967E-1	2.259999886E-2
8.943102682E2	2.803999782E-1	-2.277999967E-1	2.084100008E0
8.953102682E2	-3.517999947E-1	2.406999916E-1	-2.477200031E0
8.963102682E2	3.100999892E-1	-3.520999849E-1	-6.171000004E-1
8.973102682E2	8.709999919E-2	-7.705000043E-1	1.182500005E0
8.983102682E2	6.366999745E-1	1.014599919E0	-3.747200012E0
8.993102682E2	-3.549999744E-2	-2.507999837E-1	3.820999861E-1
9.003102682E2	8.774999976E-1	-3.630000055E-1	1.687999964E-1
9.013102682E2	-9.779999405E-2	-1.055699944E0	-8.510999680E-1
9.023102682E2	-1.117599964E0	2.168999910E-1	1.612999886E-1
9.033102682E2	-1.611000001E-1	-1.482999921E-1	-5.231199741E0
9.043102682E2	2.149999887E-1	-1.436299920E0	2.717399836E0
9.053102682E2	6.543999910E-1	-1.800999939E-1	2.613800049E0
9.063102682E2	7.389999926E-2	2.955999970E-1	-4.325999916E-1
9.073102682E2	-1.999999955E-2	5.070999861E-1	-1.892399907E0
9.083102682E2	8.614999652E-1	-8.495999575E-1	-8.801999688E-1
9.093102682E2	-3.197000027E-1	2.891999781E-1	-1.106899977E0
9.103102682E2	-6.248999834E-1	3.931999803E-1	4.801999927E-1
9.113102682E2	-9.793999791E-1	-1.050599933E0	1.806100011E0
9.123102682E2	5.508999825E-1	1.061000004E-1	-2.608299971E0
9.133102682E2	-2.300000004E-2	-2.967000008E-1	-3.856000006E-1
9.143102682E2	7.907999754E-1	9.168999791E-1	-1.862699986E0
9.153102682E2	-3.859999776E-1	6.326000094E-1	-2.974799871E0
9.163102682E2	-1.903299928E0	-9.540999532E-1	5.843899727E0
9.173102682E2	6.943999529E-1	-3.461000025E-1	1.658800006E0
9.183102682E2	1.987999976E-1	2.421999872E-1	-7.703999877E-1
9.193102682E2	8.226000071E-1	2.703999877E-1	-1.773299932E0
9.203102682E2	8.328999877E-1	5.269999802E-2	1.688599944E0
9.213102682E2	-4.099999964E-1	5.162999630E-1	-1.172799945E0
9.223102682E2	2.246999890E-1	-5.020999908E-1	4.786999822E-1
9.233102682E2	-1.336499929E0	-1.065799952E0	1.163900018E0
9.243102682E2	-5.087000132E-1	-1.891999990E-1	9.863999486E-1
9.253102682E2	1.068400025E0	3.445000052E-1	-3.236500025E0
9.263102682E2	4.277999997E-1	-7.346000075E-1	-2.142999917E-1
9.273102682E2	-7.325999737E-1	-1.175499916E0	2.833400011E0
9.283102682E2	-1.492799997E0	-9.039999843E-1	2.643800020E0
9.293102682E2	-9.949999452E-1	-5.719999671E-1	9.497999549E-1
9.303102682E2	-1.350999922E-1	-8.883000016E-1	4.928999841E-1
9.313102682E2	-9.669999480E-1	1.251099944E0	1.069000006E0
9.323102682E2	-1.550000012E-1	6.101999879E-1	1.815999985E0
9.333102682E2	7.884999514E-1	4.502999783E-1	-6.965000033E-1
9.343102682E2	1.408900023E0	9.322999716E-1	3.740999997E-1
9.353102682E2	1.473899961E0	5.945999622E-1	9.669999480E-1
9.363102682E2	1.102999926E0	5.683000088E-1	-3.865000010E-1
9.373102682E2	-7.346000075E-1	-1.238899946E0	2.972599983E0
9.383102682E2	1.690400004E0	1.925999969E-1	-1.432500005E0
9.393102682E2	7.028999925E-1	-6.319999695E-2	-1.635599971E0
9.403102682E2	3.704999983E-1	-1.703999937E-1	6.011999846E-1
9.413102682E2	-2.799999900E-3	4.256999791E-1	1.291999936E0
9.423102682E2	-8.046000004E-1	9.113000035E-1	1.963400006E0
9.433102682E2	-4.962999821E-1	1.979999989E-1	1.492999941E-1
9.443102682E2	-6.615999937E-1	1.582899928E0	-3.404999971E-1
9.453102682E2	-6.154999733E-1	-1.655000001E-1	2.666999996E-1
9.463102682E2	-2.569799900E0	6.032999754E-1	-6.901999712E-1
9.473102682E2	-9.254999757E-1	2.289000005E-1	2.308199883E0
9.483102682E2	-4.069999978E-2	-5.539999902E-2	-2.377699852E0
9.493102682E2	6.686999798E-1	1.912999898E-1	9.047999978E-1
9.503102682E2	8.297999501E-1	1.252699971E0	-1.865799904E0
9.513102682E2	7.119999528E-1	-5.382999778E-1	-1.799999923E-1
9.523102682E2	4.065999985E-1	-2.789999843E-1	-2.685899973E0
9.533102682E2	-1.226999983E-1	2.203999907E-1	3.542000055E-1
9.543102682E2	6.549999714E-1	5.478999615E-1	1.171499968E0
9.553102682E2	-1.352699995E0	-1.922999918E-1	2.746599913E0
9.563102682E2	-1.150599957E0	-5.124999881E-1	5.549599648E0
9.573102682E2	-1.391600013E0	-6.406999826E-1	1.258899927E0
9.583102682E2	-1.658699989E0	-4.579999745E-1	5.288999677E-1
9.593102682E2	3.619999811E-2	-8.991000056E-1	6.730000019E0
9.603102682E2	9.627999663E-1	1.066699982E0	-1.469200015E0
9.613102682E2	1.123399973E0	-6.631999612E-1	9.869999439E-2
9.623102682E2	-7.663999796E-1	6.832999587E-1	1.132200003E0
9.633102682E2	1.037999988E-1	-8.050999641E-1	1.754099965E0
9.643102682E2	3.001999855E-1	-1.332999915E-1	3.246999979E-1
9.653102682E2	1.569999941E-2	-2.851999998E-1	-1.954599977E0
9.663102682E2	-5.677999854E-1	-5.296999812E-1	2.659499884E0
9.673102682E2	6.130999923E-1	-6.893000007E-1	6.510999799E-1
9.683102682E2	6.269999743E-1	-4.071999788E-1	7.889999449E-2
9.693102682E2	-2.275999933E-1	-3.012999892E-1	1.183399916E0
9.703102682E2	1.179999951E-2	3.955000043E-1	3.869999945E-1
9.713102682E2	8.098999858E-1	1.307699919E0	-4.952300072E0
9.723102682E2	-1.292799950E0	-7.526999712E-1	4.646999836E0
9.733102682E2	6.448999643E-1	-4.370999932E-1	6.380999684E-1
9.743102682E2	7.525999546E-1	-1.412999928E-1	3.709999919E-1
9.753102682E2	8.560999632E-1	-7.222999930E-1	1.208899975E0
9.763102682E2	1.164999977E-1	-1.342999935E-1	-6.417999864E-1
9.773102682E2	1.484999955E-1	-1.995999962E-1	8.726999760E-1
9.783102682E2	-5.299000144E-1	2.610999942E-1	-1.514599919E0
9.793102682E2	-2.201799870E0	1.682399988E0	5.419999734E-2
9.803102682E2	-4.341000021E-1	4.154999852E-1	-3.509999812E-1
9.813102682E2	8.299999870E-3	-3.067999780E-1	2.423399925E0
9.823102682E2	1.031199932E0	-6.401000023E-1	1.184099913E0
9.833102682E2	-7.605999708E-1	-1.534299970E0	1.461699963E0
9.843102682E2	6.111999750E-1	2.166999876E-1	5.141999722E-1
9.853102682E2	3.586999774E-1	-1.025499940E0	3.162400007E0
9.863102682E2	9.684000015E-1	1.500800014E0	-3.707299948E0
9.873102682E2	-1.377599955E0	3.734999895E-1	4.553499699E0
9.883102682E2	1.385299921E0	5.532999635E-1	-3.404999971E0
9.893102682E2	-1.441999912E0	1.256999969E-1	-2.648799896E0
9.903102682E2	-1.135800004E0	1.950000040E-2	-9.745000005E-1
9.913102682E2	-9.404999614E-1	1.159999967E0	-8.986999989E-1
9.923102682E2	1.559999958E-2	-1.120599985E0	4.612499714E0
9.933102682E2	1.951699972E0	-1.483199954E0	2.216599941E0
9.943102682E2	3.693999946E-1	-2.294999957E-1	-4.207999706E0
9.953102682E2	5.342999697E-1	1.061999947E-1	-4.741699696E0
9.963102682E2	-1.116099954E0	-7.645999789E-1	2.637999952E-1
9.973102682E2	-1.348999977E0	7.499999832E-3	-1.180999950E-1
9.983102682E2	7.055000067E-1	-8.339999616E-2	-1.485999972E-1
9.993102682E2	3.423999846E-1	-1.064299941E0	1.631999969E0
1.000310268E3	8.125999570E-1	-2.330999970E-1	-3.847499847E0
1.001310268E3	5.803999901E-1	3.914999962E-1	-2.140799999E0
1.002310268E3	2.202999890E-1	4.142999947E-1	-8.941999674E-1
1.003310268E3	-6.143000126E-1	3.669999838E-1	-4.248600006E0
1.004310268E3	-3.079999983E-2	3.675999939E-1	-2.486500025E0
1.005310268E3	-4.134999812E-1	1.034999967E0	1.795699954E0
1.006310268E3	-2.062799931E0	-1.154500008E0	7.935899734E0
1.007310268E3	6.906999946E-1	-1.091699958E0	3.786700010E0
1.008310268E3	1.766099930E0	3.360999823E-1	-2.258399963E0
1.009310268E3	3.506999910E-1	-1.420000009E-2	-2.125499964E0
1.010310268E3	-6.784999967E-1	-4.484999776E-1	-5.130999684E-1
1.011310268E3	-2.618199825E0	1.667999923E-1	2.066200018E0
1.012310268E3	-1.322999895E-1	-2.266999930E-1	5.751399994E0
1.013310268E3	-1.410999894E-1	-5.009999871E-1	-1.719099998E0
1.014310268E3	3.519999981E-1	-6.204999685E-1	4.974999726E-1
1.015310268E3	-7.335000038E-1	-1.128899932E0	4.106699944E0
1.016310268E3	-3.684999943E-1	1.676999927E-1	-2.660500050E0
1.017310268E3	-1.687699914E0	-6.498000026E-1	5.713500023E0
1.018310268E3	8.386999965E-1	2.368000001E-1	-1.916299939E0
1.019310268E3	1.428799987E0	6.495000124E-1	-9.775999784E-1
1.020310268E3	6.929000020E-1	-1.586000025E-1	7.099999785E-1
1.021310268E3	-1.333999932E-1	-5.266999602E-1	1.522099972E0
1.022310268E3	1.752000004E-1	-1.271700025E0	2.659399986E0
1.023310268E3	-4.616999924E-1	-3.439999744E-2	-1.799399972E0
1.024310268E3	-1.452799916E0	1.366999894E-1	3.031699896E0
1.025310268E3	-1.867000014E-1	4.809999764E-1	-8.533999920E-1
1.026310268E3	3.815999925E-1	4.262999892E-1	-3.690399885E0
1.027310268E3	3.879999816E-1	1.095799923E0	1.284999996E-1
1.028310268E3	-7.288999557E-1	8.499999531E-3	1.207599998E0
1.029310268E3	-7.217999697E-1	-7.699999958E-3	-1.361999989E0
1.030310268E3	-6.062999964E-1	2.236000001E-1	6.808999777E-1
1.031310268E3	3.764999807E-1	-2.757999897E-1	-3.919000030E-1
1.032310268E3	1.216599941E0	-9.128999710E-1	-1.541199923E0
1.033310268E3	-5.823000073E-1	8.873999715E-1	-1.093199968E0
1.034310268E3	-7.669000030E-1	-4.607999921E-1	2.076599836E0
1.035310268E3	-1.487800002E0	3.181000054E-1	4.165000021E-1
1.036310268E3	1.711999923E-1	6.236000061E-1	-1.035899997E0
1.037310268E3	-1.680999994E-1	-7.064999938E-1	2.101399899E0
1.038310268E3	8.461999893E-1	7.379999757E-1	-2.455600023E0
1.039310268E3	-1.377999932E-1	9.848999977E-1	-8.201999664E-1
1.040310268E3	-1.459599972E0	-5.755000114E-1	2.554499865E0
1.041310268E3	4.636999965E-1	1.981000006E-1	-6.209999695E-2
1.042310268E3	2.006799936E0	7.012999654E-1	-4.274699688E0
1.043310268E3	-5.857999921E-1	-1.199999941E-3	3.035399914E0
1.044310268E3	-1.715399981E0	3.445999920E-1	2.586499929E0
1.045310268E3	-6.024999619E-1	8.429999948E-1	-1.090499997E0
1.046310268E3	-5.214999914E-1	-1.703799963E0	1.468699932E0
1.047310268E3	2.998999953E-1	-1.075999960E-1	-1.662899971E0
1.048310268E3	2.228999883E-1	2.118099928E0	4.089999795E-1
1.049310268E3	-2.996199846E0	1.194100022E0	3.718299866E0
1.050310268E3	6.676999927E-1	2.029999904E-2	-2.456000000E-1
1.051310268E3	-6.710999608E-1	-4.223999977E-1	-4.115999699E0
1.052310268E3	-1.561999917E0	6.363999844E-1	3.518599987E0
1.053310268E3	-3.989999741E-2	7.249999791E-2	2.496999949E-1
1.054310268E3	-1.199000001E0	8.599999547E-2	9.089999646E-2
1.055310268E3	6.570000201E-2	5.489999801E-2	9.849999845E-2
1.056310268E3	-8.463999629E-1	3.057000041E-1	6.703999639E-1
1.057310268E3	-3.770000041E-1	1.332499981E0	-7.518999577E-1
1.058310268E3	9.277999997E-1	9.757999778E-1	-1.303000003E-1
1.059310268E3	4.162999988E-1	-2.659999952E-2	2.175000012E-1
1.060310268E3	2.597000003E-1	1.366000026E-1	-3.018999994E-1
1.061310268E3	2.132999897E-1	-1.420999914E-1	-3.610000014E-2
1.062310268E3	6.749999523E-2	1.344999969E-1	2.635999918E-1
1.063310268E3	-4.779999703E-2	1.797000021E-1	2.129999995E-1
1.064310268E3	-1.260000020E-1	2.396999896E-1	-1.379999984E-2
1.065310268E3	-2.152999938E-1	3.598999977E-1	3.799999952E-1
1.066310268E3	1.175999939E-1	5.175999999E-1	2.442999929E-1
1.067310268E3	-2.709999867E-2	-3.364000022E-1	1.225499988E0
1.068310268E3	-1.194399953E0	3.529999778E-2	-8.760000020E-2
1.069310268E3	-1.243600011E0	6.825999618E-1	2.662999928E-1
1.070310268E3	2.924999893E-1	-2.019999921E-1	9.711999893E-1
1.071310268E3	1.700000018E-1	-8.659999818E-2	1.351799965E0
1.072310268E3	9.801999927E-1	4.010999799E-1	1.455999911E-1
1.073310268E3	-4.457999766E-1	-7.150999904E-1	-5.145999789E-1
1.074310268E3	-2.679999918E-2	1.736999899E-1	-5.611999631E-1
1.075310268E3	9.229999781E-2	1.422999948E-1	3.819999844E-2
1.076310268E3	-3.050000072E-1	-6.509999931E-2	-7.962999940E-1
1.077310268E3	5.055999756E-1	-2.921999991E-1	-6.139000058E-1
1.078310268E3	-5.439999700E-2	2.599999867E-2	-1.304000020E-1
1.079310268E3	1.361999959E-1	-2.454999983E-1	3.087999821E-1
1.080310268E3	1.882999986E-1	2.538999915E-1	2.856999934E-1
1.081310268E3	1.483799934E0	8.014000058E-1	-2.446699858E0
1.082310268E3	-3.869999945E-2	-8.136999607E-1	2.056299925E0
1.083310268E3	-4.289999902E-1	-1.128999963E-1	9.539999962E-1
1.084310268E3	-7.504000068E-1	-2.291999906E-1	3.238999844E0
1.085310268E3	8.636999726E-1	3.488000035E-1	-9.727999568E-1
1.086310268E3	-1.421299934E0	-3.718000054E-1	-1.580099940E0
1.087310268E3	1.562999934E-1	3.418999910E-1	-6.859999895E-2
1.088310268E3	5.138999820E-1	-1.067700028E0	2.035399914E0
1.089310268E3	1.198899984E0	4.637999833E-1	1.592399955E0
1.090310268E3	-3.066000044E-1	-5.062000155E-1	-1.692999899E-1
1.091310268E3	-2.956999838E-1	2.006999999E-1	4.491999745E-1
1.092310268E3	-1.563399911E0	6.199999712E-3	1.431299925E0
1.093310268E3	-1.077299953E0	-1.639899969E0	5.033299923E0
1.094310268E3	3.287999928E-1	-5.378999710E-1	-4.117499828E0
1.095310268E3	8.863999844E-1	-2.490999997E-1	-1.968199968E0
1.096310268E3	-1.339599967E0	8.810999990E-1	9.079999477E-2
1.097310268E3	-5.079999939E-2	5.809999704E-1	-4.749999940E-1
1.098310268E3	1.878999919E-1	2.718999982E-1	-5.195999742E-1
1.099310268E3	5.699999630E-3	7.967000008E-1	4.393000007E-1
1.100310268E3	2.476999909E-1	5.225999951E-1	6.667000055E-1
1.101310268E3	1.047999978E0	-8.969999850E-2	9.584999681E-1
1.102310268E3	3.671000004E-1	-3.217999935E-1	1.507999897E-1
1.103310268E3	-3.231000006E-1	3.050000072E-1	1.632699966E0
1.104310268E3	6.747999787E-1	-1.700000018E-1	1.090000011E-2
1.105310268E3	7.662000060E-1	7.362999916E-1	-1.914199948E0
1.106310268E3	-2.049999982E-1	5.285999775E-1	-2.091399908E0
1.107310268E3	-1.726999998E0	-6.449999809E-1	1.087000012E0
1.108310268E3	-2.246500015E0	4.175999761E-1	1.733599901E0
1.109310268E3	-9.960999489E-1	-6.060000062E-1	3.206699848E0
1.110310268E3	-2.252999991E-1	-3.685999811E-1	7.799999714E-1
1.111310268E3	3.625999987E-1	-2.242999971E-1	-1.008000016E0
1.112310268E3	6.269999593E-2	-4.311999977E-1	7.851999998E-1
1.113310268E3	4.869999737E-2	-6.643999815E-1	2.081500053E0
1.114310268E3	1.019299984E0	5.135999918E-1	4.535999894E-1
1.115310268E3	1.489999983E-2	-2.283999920E-1	-1.340000033E-1
1.116310268E3	-4.417999983E-1	8.852999806E-1	-3.100999892E-1
1.117310268E3	-8.719999790E-1	-5.549999699E-2	-5.008000135E-1
1.118310268E3	-2.134999931E-1	4.271999896E-1	-9.970999956E-1
1.119310268E3	1.064899921E0	8.339999914E-1	-2.894999981E-1
1.120310268E3	1.577000022E-1	-1.028800011E0	1.750800014E0
1.121310268E3	-1.507000029E-1	1.180199981E0	-2.039000034E0
1.122310268E3	9.047999978E-1	1.127999946E-1	-7.500999570E-1
1.123310268E3	7.519999892E-2	6.309999824E-1	-2.140100002E0
1.124310268E3	4.244999886E-1	6.039999723E-1	2.852999866E-1
1.125310268E3	-9.271999598E-1	-1.748999953E0	6.680799961E0
1.126310268E3	2.970999777E-1	7.014999986E-1	-2.912400007E0
1.127310268E3	3.701999784E-1	3.650999963E-1	-5.762999654E-1
1.128310268E3	-1.667899966E0	9.747999907E-1	-8.130999804E-1
1.129310268E3	-3.429999948E-2	-8.697999716E-1	3.388099909E0
1.130310268E3	-1.164099932E0	4.259999990E-1	8.610000014E-1
1.131310268E3	4.120000079E-2	-4.366999865E-1	1.122799993E0
1.132310268E3	-2.459999919E-1	4.932999909E-1	-3.458999991E-1
1.133310268E3	-5.845000148E-1	3.594000041E-1	9.897999763E-1
1.134310268E3	-2.757000029E-1	-1.737999916E-1	-6.700000167E-2
1.135310268E3	-4.913999736E-1	3.260999918E-1	-1.090000011E-2
1.136310268E3	-6.453999877E-1	-2.440999895E-1	2.629600048E0
1.137310268E3	-5.751000047E-1	1.643999964E-1	-3.121999800E-1
1.138310268E3	-7.310000062E-2	-3.429999948E-2	-2.167999893E-1
1.139310268E3	6.732999682E-1	3.558999896E-1	-8.100000024E-2
1.140310268E3	-7.524999976E-1	4.670999944E-1	-8.414999843E-1
1.141310268E3	-1.671999991E-1	8.887999654E-1	1.309999973E-1
1.142310268E3	-1.067999959E0	-1.142799973E0	1.400499940E0
1.143310268E3	2.830999792E-1	2.248999923E-1	-1.974099994E0
1.144310268E3	5.609999895E-1	-5.184000134E-1	1.118700027E0
1.145310268E3	8.129999787E-2	-3.375000060E-1	6.304999590E-1
1.146310268E3	-4.676999748E-1	-1.570999920E-1	5.475000143E-1
1.147310268E3	9.736999869E-1	-4.800999761E-1	8.495999575E-1
1.148310268E3	-4.951999784E-1	4.425999820E-1	2.163999975E-1
1.149310268E3	-2.478999943E-1	-1.484999955E-1	1.345600009E0
1.150310268E3	8.179000020E-1	-2.386999875E-1	-1.834999919E0
1.151310268E3	-2.690999806E-1	-3.468999863E-1	3.931999803E-1
1.152310268E3	-1.371699929E0	1.226300001E0	-1.486599922E0
1.153310268E3	-3.646000028E-1	6.184999943E-1	2.206999958E-1
1.154310268E3	2.743999958E-1	-5.956999660E-1	1.125900030E0
1.155310268E3	8.299999870E-3	-6.272999644E-1	-1.277999997E0
1.156310268E3	7.912999988E-1	-5.203999877E-1	9.721999764E-1
1.157310268E3	1.314999908E-1	7.100999951E-1	-5.802999735E-1
1.158310268E3	-1.591999978E-1	2.793000042E-1	-7.358999848E-1
1.159310268E3	-9.170999527E-1	-1.909999996E-1	1.283499956E0
1.160310268E3	8.790999651E-1	-5.116999745E-1	1.510199904E0
1.161310268E3	-5.269999802E-2	7.436999679E-1	5.359999835E-2
1.162310268E3	7.504999638E-1	1.473099947E0	-3.827699900E0
1.163310268E3	-6.574000120E-1	-7.773000002E-1	2.037400007E0
1.164310268E3	1.149199963E0	4.490000010E-2	-4.540800095E0
1.165310268E3	2.089999914E-1	-5.990999937E-1	2.357499838E0
1.166310268E3	-8.937000036E-1	4.998999834E-1	-5.575999618E-1
1.167310268E3	1.248099923E0	-1.753000021E-1	-1.890100002E0
1.168310268E3	1.563599944E0	-1.504999995E0	6.672999859E-1
1.169310268E3	-9.362999797E-1	5.670999885E-1	1.489000022E-1
1.170310268E3	3.255999982E-1	-1.172999963E-1	2.476999998E0
1.171310268E3	1.260499954E0	-1.308099985E0	-1.471499920E0
1.172310268E3	1.313000023E-1	-2.738600016E0	1.163999960E-1
1.173310268E3	-4.774999917E-1	1.456999928E-1	-8.463999629E-1
1.174310268E3	-1.302799940E0	1.658100009E0	2.358999997E-1
1.175310268E3	7.516999841E-1	-2.064699888E0	2.999699831E0
1.176310268E3	-2.996999919E-1	2.558999956E-1	-3.962999880E-1
1.177310268E3	-2.608999908E-1	1.381699920E0	-4.202199936E0
1.178310268E3	-1.381500006E0	-5.216000080E-1	1.248600006E0
1.179310268E3	5.608999729E-1	6.078000069E-1	9.534999728E-1
1.180310268E3	-2.075099945E0	-5.670999885E-1	-7.504999638E-1
1.181310268E3	-2.761999965E-1	5.737999678E-1	9.677999616E-1
1.182310268E3	4.177999794E-1	5.230999589E-1	1.104900002E0
1.183310268E3	-3.909199953E0	1.972499967E0	-2.775399923E0
1.184310268E3	6.372399807E0	-1.650999904E0	-4.179999828E-1
1.185310268E3	-4.529999942E-2	-2.513000071E-1	9.781999588E-1
1.186310268E3	-5.164999962E-1	2.469999939E-1	1.130499959E0
1.187310268E3	1.910699964E0	5.153999925E-1	5.228499889E0
1.188310268E3	-1.871599913E0	-2.599999905E-1	-3.252999783E-1
1.189310268E3	6.985999942E-1	-4.494999945E-1	-9.818999767E-1
1.190310268E3	1.720999926E-1	-1.097899914E0	-4.641999900E-1
1.191310268E3	-1.855999976E-1	1.118099928E0	3.120000064E-1
1.192310268E3	-7.845000029E-1	-7.433999777E-1	1.154099941E0
1.193310268E3	5.410000086E-1	3.396999836E-1	1.451499939E0
1.194310268E3	-1.198599935E0	8.697999716E-1	1.325999945E-1
1.195310268E3	-3.962000012E-1	9.259999543E-2	-4.688999951E-1
1.196310268E3	-1.393000036E-1	-3.579999804E-1	-2.575999796E-1
1.197310268E3	2.092700005E0	-1.690400004E0	1.090700030E0
1.198310268E3	-1.217000008E0	-6.682999730E-1	2.016200066E0
1.199310268E3	5.309000015E-1	7.530000061E-2	-2.037600040E0
1.200310268E3	-1.167400002E0	-4.116999805E-1	-1.000000000E0
1.201310268E3	3.657999933E-1	-1.875000000E-1	-1.785699964E0
1.202310268E3	-6.979999691E-2	4.235000014E-1	1.895599961E0
1.203310268E3	1.167699933E0	-1.000999957E-1	2.276299953E0
1.204310268E3	1.114199996E0	1.140999913E0	-3.069700003E0
1.205310268E3	-8.599999547E-1	-4.309999943E-2	-2.163100004E0
1.206310268E3	9.633999467E-1	-1.228999972E0	2.383899927E0
1.207310268E3	6.334999800E-1	-3.986999989E-1	9.235000014E-1
1.208310268E3	1.290999949E-1	1.538199902E0	-4.185400009E0
1.209310268E3	-1.146999955E0	3.599999845E-1	-9.138000011E-1
1.210310268E3	2.441999912E-1	-3.058999777E-1	-1.350199938E0
1.211310268E3	1.019999944E-2	3.343999982E-1	2.044100046E0
1.212310268E3	6.918999553E-1	6.351000071E-1	-2.898999929E0
1.213310268E3	2.962000072E-1	-2.412000000E-1	-2.416499853E0
1.214310268E3	1.446799994E0	-1.519899964E0	4.303499699E0
1.215310268E3	6.669999659E-2	3.777000010E-1	7.838999629E-1
1.216310268E3	-3.540000021E-1	5.791000128E-1	-2.754199982E0
1.217310268E3	4.898999929E-1	1.574999988E-1	-2.193500042E0
1.218310268E3	-1.360999942E-1	4.883999825E-1	8.786000013E-1
1.219310268E3	1.172699928E0	5.993999839E-1	1.555299997E0
1.220310268E3	-6.712399960E0	-2.699999884E-2	-6.974999905E-1
1.221310268E3	3.502799988E0	-4.240200043E0	-2.629099846E0
1.222310268E3	7.822999954E-1	9.099999443E-3	-1.522499919E0
1.223310268E3	4.955999851E-1	-5.238999724E-1	3.648999929E-1
1.224310268E3	7.180000097E-2	2.924999893E-1	-4.750999808E-1
1.225310268E3	-1.061999917E0	1.700399995E0	2.800000012E-1
1.226310268E3	-2.912999988E-1	-3.578999937E-1	-2.379999869E-2
1.227310268E3	-2.817899942E0	-1.245000005E0	4.007299900E0
1.228310268E3	2.604999840E-1	2.438799858E0	2.610699892E0
1.229310268E3	1.984899998E0	7.236999869E-1	-5.527999997E-1
1.230310268E3	-2.392999887E0	1.815999895E-1	1.225299954E0
1.231310268E3	3.377899885E0	1.153900027E0	2.474400043E0
1.232310268E3	-3.664000034E-1	4.228999913E-1	2.131999880E-1
1.233310268E3	-1.252000034E-1	-5.799999926E-3	-1.484200001E0
1.234310268E3	8.091999888E-1	-5.508999825E-1	-2.511899948E0
1.235310268E3	8.549999595E-1	7.748999596E-1	9.919999540E-2
1.236310268E3	7.127999663E-1	-1.858000010E-1	-2.781999826E0
1.237310268E3	8.436999917E-1	-6.724999547E-1	-9.506999850E-1
1.238310268E3	-6.660999656E-1	-7.714999914E-1	-7.895999551E-1
1.239310268E3	-1.430899978E0	8.949999809E-1	2.551300049E0
1.240310268E3	-1.123000026E0	-6.504999995E-1	5.038999915E-1
1.241310268E3	-7.131999731E-1	2.928999960E-1	-2.134199858E0
1.242310268E3	-1.599900007E0	-2.449999936E-2	-5.203599930E0
1.243310268E3	-8.399999887E-2	-3.473999798E-1	2.908200026E0
1.244310268E3	-3.939999938E-1	-1.131799936E0	2.185600042E0
1.245310268E3	1.438699961E0	2.869999968E-2	1.420599937E0
1.246310268E3	5.400999784E-1	7.989999652E-2	-2.296599865E0
1.247310268E3	-1.656999886E-1	6.482999921E-1	-1.750599980E0
1.248310268E3	1.620800018E0	-3.140100002E0	4.965899944E0
1.249310268E3	-5.203999877E-1	5.148999691E-1	9.689999819E-1
1.250310268E3	2.669999897E-1	8.064000010E-1	-2.212599993E0
1.251310268E3	9.261999726E-1	3.619999886E-1	-2.925599813E0
1.252310268E3	-1.245299935E0	2.522999942E-1	-1.082999945E0
1.253310268E3	1.377900004E0	-4.419999942E-2	2.927700043E0
1.254310268E3	9.779999405E-2	-7.598999739E-1	-3.466999829E-1
1.255310268E3	-2.242599964E0	-3.969999775E-2	-3.080799818E0
1.256310268E3	2.291399956E0	2.777000070E-1	3.960399866E0
1.257310268E3	-1.525799990E0	4.950999916E-1	6.372999549E-1
1.258310268E3	-1.036700010E0	7.290999889E-1	-2.829699993E0
1.259310268E3	2.509999871E-1	-1.394999921E-1	2.094699860E0
1.260310268E3	-1.991999894E-1	1.196499944E0	-2.026799917E0
1.261310268E3	-6.216999888E-1	-1.523800015E0	1.654500008E0
1.262310268E3	-6.219999790E-1	5.949999690E-1	-2.529000044E-1
1.263310268E3	7.599999756E-2	-6.976999640E-1	-4.612599850E0
1.264310268E3	-5.593000054E-1	3.154999912E-1	-1.052199960E0
1.265310268E3	3.267999887E-1	1.276399970E0	1.185799956E0
1.266310268E3	-5.817999840E-1	-4.083999991E-1	-1.747599959E0
1.267310268E3	1.669999957E-2	-2.060000040E-2	-1.580899954E0
1.268310268E3	-6.247999668E-1	5.949999765E-2	-7.695999742E-1
1.269310268E3	5.460000038E-2	4.117999971E-1	-9.341999888E-1
1.270310268E3	-2.097999901E-1	6.933999658E-1	2.216500044E0
1.271310268E3	-1.644999981E-1	1.021999940E-1	-2.791999817E0
1.272310268E3	-4.580000043E-2	1.000999957E-1	-8.162999749E-1
1.273310268E3	7.580000162E-2	1.173699975E0	1.140299916E0
1.274310268E3	5.519999936E-2	3.364000022E-1	-1.913199902E0
1.275310268E3	1.832000017E-1	5.742999911E-1	-4.657999873E-1
1.276310268E3	2.216999978E-1	-4.311999977E-1	4.414499760E0
1.277310268E3	-2.004999965E-1	-5.633000135E-1	-1.800799966E0
1.278310268E3	7.444999814E-1	1.509699941E0	-2.327399969E0
1.279310268E3	8.011999726E-1	-9.439999610E-2	3.170000017E-2
1.280310268E3	-4.629999772E-2	9.024999738E-1	5.277999640E-1
1.281310268E3	-8.464999795E-1	2.970999777E-1	-2.553999901E0
1.282310268E3	4.066999853E-1	-5.320999622E-1	8.219999820E-2
1.283310268E3	6.578999758E-1	1.026999950E-1	2.168799877E0
1.284310268E3	1.336899996E0	8.725999594E-1	-2.893299818E0
1.285310268E3	-1.879999973E-2	5.231999755E-1	-3.051800013E0
1.286310268E3	9.119999409E-2	-6.818999648E-1	-2.129199982E0
1.287310268E3	5.752999783E-1	6.750999689E-1	3.684799910E0
1.288310268E3	-1.645999908E0	4.548999965E-1	-4.138999879E-1
1.289310268E3	-1.036999941E0	-2.869999968E-2	-2.450399876E0
1.290310268E3	1.228999943E-1	-1.364499927E0	5.179100037E0
1.291310268E3	4.648000002E-1	6.028000116E-1	1.656999946E0
1.292310268E3	4.950999916E-1	-1.534999907E-1	-2.858700037E0
1.293310268E3	-8.822999597E-1	-1.197999939E-1	-1.907899976E0
1.294310268E3	1.134799957E0	-4.177999794E-1	5.611099720E0
1.295310268E3	8.639999479E-2	9.735999703E-1	1.786499977E0
1.296310268E3	-1.737999916E-1	2.879999876E-1	-3.679299831E0
1.297310268E3	4.730999768E-1	-2.644000053E-1	-4.485999942E-1
1.298310268E3	-9.989999980E-2	-8.466999531E-1	1.227699995E0
1.299310268E3	1.094200015E0	7.449999452E-2	8.068000078E-1
1.300310268E3	8.057999611E-1	-3.743999898E-1	-1.844299912E0
1.301310268E3	-6.662999988E-1	-7.304999828E-1	-2.953999996E0
1.302310268E3	1.682099938E0	-3.492199898E0	9.441399574E0
1.303310268E3	1.824099898E0	1.081699967E0	5.138700008E0
1.304310268E3	6.164000034E-1	2.540000081E-1	-1.612499952E0
1.305310268E3	-7.468000054E-1	-4.666000009E-1	-2.233500004E0
1.306310268E3	-1.544600010E0	-7.095999718E-1	2.447599888E0
1.307310268E3	-4.124999940E-1	-1.309999943E0	4.979599953E0
1.308310268E3	7.116999626E-1	-4.283999801E-1	1.807999909E-1
1.309310268E3	4.124999940E-1	-1.332999915E-1	-4.066599846E0
1.310310268E3	-9.797999859E-1	-4.687999785E-1	-1.631500006E0
1.311310268E3	2.299000025E0	-1.002699971E0	6.447799683E0
1.312310268E3	3.475099802E0	1.337799907E0	2.704099894E0
1.313310268E3	-7.353000045E-1	3.226999938E-1	-2.135799885E0
1.314310268E3	8.861999512E-1	1.486599922E0	-6.029999852E-1
1.315310268E3	1.602100015E0	1.206300020E0	-1.578699946E0
1.316310268E3	-6.030000001E-2	-1.634999961E-1	5.954999924E-1
1.317310268E3	1.416299939E0	-3.129400015E0	9.158599854E0
1.318310268E3	1.352499962E0	2.131700039E0	1.363899946E0
1.319310268E3	-6.212999821E-1	5.507000089E-1	-1.292599916E0
1.320310268E3	-1.563599944E0	3.810000047E-2	-4.259799957E0
1.321310268E3	6.480000168E-2	9.079999477E-2	-6.241999865E-1
1.322310268E3	4.678999782E-1	1.043200016E0	1.455299973E0
1.323310268E3	2.518000007E-1	5.385000110E-1	1.757900000E0
1.324310268E3	-1.788000017E-1	2.809000015E-1	-3.562599897E0
1.325310268E3	-5.764999986E-1	7.418999672E-1	-3.926699877E0
1.326310268E3	-1.437799931E0	-1.568999887E-1	-2.161499977E0
1.327310268E3	-1.681399941E0	-2.626000047E-1	-3.590799809E0
1.328310268E3	3.014199972E0	-1.281399965E0	5.560899734E0
1.329310268E3	-2.061000019E-1	9.751999974E-1	4.632599831E0
1.330310268E3	-4.139999747E-1	1.017599940E0	2.096799850E0
1.331310268E3	-1.385699987E0	2.987000048E-1	-4.115600109E0
1.332310268E3	-5.731999874E-1	-1.341099977E0	-1.975199938E0
1.333310268E3	1.040000003E-2	-5.949000120E-1	2.786299944E0
1.334310268E3	4.670999944E-1	2.461999953E-1	1.215499997E0
1.335310268E3	2.191200018E0	-1.401000023E-1	1.413399935E0
1.336310268E3	-4.806999862E-1	-2.161999941E-1	-3.047199965E0
1.337310268E3	-9.439999610E-2	-3.649999946E-2	-5.057300091E0
1.338310268E3	-5.162999630E-1	-5.139999986E-1	1.986999959E-1
1.339310268E3	-8.079999685E-2	9.899999499E-1	4.267099857E0
1.340310268E3	-4.159999788E-1	1.245999932E0	-2.041800022E0
1.341310268E3	-1.449399948E0	6.809999943E-1	-5.062200069E0
1.342310268E3	-3.032999933E-1	3.310999870E-1	-3.181799889E0
1.343310268E3	8.089999855E-2	-1.046000004E0	3.390399933E0
1.344310268E3	1.673200011E0	-2.099999972E-2	4.337100029E0
1.345310268E3	-9.319999814E-2	-2.080000006E-2	-2.300600052E0
1.346310268E3	-1.303599954E0	-4.751999974E-1	-4.241699696E0
1.347310268E3	1.196200013E0	-1.827699900E0	4.788499832E0
1.348310268E3	-6.513999701E-1	2.606699944E0	1.634099960E0
1.349310268E3	-1.098299980E0	-1.108999997E-1	8.909999579E-2
1.350310268E3	-1.002300024E0	1.573999971E-1	-5.387000084E0
1.351310268E3	2.154999971E-1	-1.851399899E0	8.932600021E0
1.352310268E3	1.923900008E0	6.988999844E-1	1.006600022E0
1.353310268E3	1.529999916E-2	5.432000160E-1	-3.033200026E0
1.354310268E3	-4.098999798E-1	1.668999940E-1	-3.899899960E0
1.355310268E3	1.394999921E-1	-9.929999709E-1	-4.271000028E-1
1.356310268E3	1.850600004E0	6.279999614E-1	4.993899822E0
1.357310268E3	9.733999968E-1	9.053999782E-1	2.710799932E0
1.358310268E3	-1.497699976E0	1.096899986E0	-4.770100117E0
1.359310268E3	-4.587999880E-1	-9.178999662E-1	-1.664799929E0
1.360310268E3	-2.609999850E-2	1.943999976E-1	2.272999883E-1
1.361310268E3	-7.832999825E-1	-9.752999544E-1	1.156499982E0
1.362310268E3	1.406999946E0	-7.869999856E-2	1.391000003E-1
1.363310268E3	2.589999884E-2	6.304000020E-1	-3.155400038E0
1.364310268E3	1.876000017E-1	-2.531999946E-1	-1.996099949E0
1.365310268E3	-9.674999714E-1	-4.743999839E-1	3.462199926E0
1.366310268E3	-7.267999649E-1	-2.793000042E-1	-1.916099906E0
1.367310268E3	-1.417699933E0	-3.454999924E-1	4.076600075E0
1.368310268E3	2.173999995E-1	5.429999828E-1	-7.401999831E-1
1.369310268E3	2.647999823E-1	1.223500013E0	-2.403699875E0
1.370310268E3	1.577999890E-1	-6.620999575E-1	-3.777099848E0
1.371310268E3	-6.072999835E-1	-1.118999943E-1	-2.541299820E0
1.372310268E3	5.828999877E-1	-1.676999927E-1	2.333499908E0
1.373310268E3	-4.681999981E-1	4.765999913E-1	1.005599976E0
1.374310268E3	-1.857199907E0	1.310000010E-2	-4.577099800E0
1.375310268E3	-1.378899932E0	-7.565000057E-1	-2.638200045E0
1.376310268E3	-3.391000032E-1	-3.477099895E0	9.017999768E-1
1.377310268E3	4.317500114E0	-1.784500003E0	1.574499965E0
1.378310268E3	-3.751799822E0	6.067999601E-1	6.897000074E-1
1.379310268E3	9.993000031E-1	-1.374000013E-1	-4.637999833E-1
1.380310268E3	2.442999840E0	-3.833299875E0	7.256999612E-1
1.381310268E3	4.131199837E0	9.441999793E-1	1.401999891E-1
1.382310268E3	4.672999978E-1	-5.939999819E-1	1.210600019E0
1.383310268E3	-2.333999872E0	1.650699973E0	1.203599930E0
1.384310268E3	3.367599964E0	-1.971199989E0	3.584499836E0
1.385310268E3	-2.525899887E0	-5.727999806E-1	1.456300020E0
1.386310268E3	-6.298999786E-1	-7.724999785E-1	1.108899951E0
1.387310268E3	-4.999999655E-4	5.639999732E-2	4.299999680E-3
1.388310268E3	1.809999906E-2	1.516000032E-1	9.800000116E-3
1.389310268E3	-2.116999924E-1	-1.358999908E-1	3.139999881E-2
1.390310268E3	-7.305999994E-1	-2.123999894E-1	2.611500025E0
1.391310268E3	-1.488000005E-1	-1.557399988E0	-2.549999952E-2
1.392310268E3	6.679999828E-2	-6.379999965E-2	-3.423999846E-1
1.393310268E3	-1.428999901E-1	1.157400012E0	-1.100000024E0
1.394310268E3	1.403999925E0	-1.396899939E0	3.082199812E0
1.395310268E3	-1.259500027E0	-7.289999723E-2	-1.822699904E0
1.396310268E3	-9.357999563E-1	1.879699945E0	-5.532099724E0
1.397310268E3	-1.247799993E0	9.356999993E-1	-1.335099936E0
1.398310268E3	-6.449999660E-2	-1.002099991E0	9.634999633E-1
1.399310268E3	-1.074299932E0	-1.077600002E0	3.540099859E0
1.400310268E3	7.919999957E-2	-1.972000003E-1	1.062199950E0
1.401310268E3	1.074499965E0	-3.375000060E-1	-5.469999790E0
1.402310268E3	8.899999782E-3	-4.325999916E-1	-1.916999966E-1
1.403310268E3	5.496999621E-1	-4.262999892E-1	-4.272399902E0
1.404310268E3	-2.080100060E0	-5.444999933E-1	-3.306900024E0
1.405310268E3	1.467299938E0	-1.744799972E0	4.488199711E0
1.406310268E3	1.574299932E0	2.179999948E-1	2.383199930E0
1.407310268E3	2.217299938E0	-1.356000006E-1	4.925899982E0
1.408310268E3	9.705999494E-1	1.499400020E0	2.428200006E0
1.409310268E3	6.459000111E-1	5.069999769E-2	2.727799892E0
1.410310268E3	1.250000000E-1	8.733999729E-1	3.385999918E0
1.411310268E3	-4.353999794E-1	3.269999847E-2	1.239300013E0
1.412310268E3	1.197199941E0	7.354999781E-1	2.909299850E0
1.413310268E3	-5.899999756E-3	1.568000019E-1	-1.602699995E0
1.414310268E3	-2.773999870E-1	2.369999886E-1	-9.178999662E-1
1.415310268E3	4.936999977E-1	2.709999979E-1	-3.914999962E-1
1.416310268E3	7.947999835E-1	3.502999842E-1	1.607999951E-1
1.417310268E3	1.983399987E0	-8.575999737E-1	1.181999967E-1
1.418310268E3	5.379999802E-2	2.694000006E-1	-8.165999651E-1
1.419310268E3	-2.391999960E-1	-1.680799961E0	3.763299942E0
1.420310268E3	-6.759999692E-2	1.342499971E0	6.312999725E-1
1.421310268E3	-2.908000052E-1	-7.609999925E-2	-5.938999653E-1
1.422310268E3	2.089999989E-2	1.028499961E0	-1.166800022E0
1.423310268E3	4.769999906E-2	-5.855999589E-1	2.433599949E0
1.424310268E3	3.817999959E-1	-1.064999998E-1	2.716999948E-1
1.425310268E3	9.279999882E-2	6.402999759E-1	-1.575999975E0
1.426310268E3	-4.467999935E-1	2.470999956E-1	2.404199839E0
1.427310268E3	1.007499933E0	-9.680999517E-1	7.626999617E-1
1.428310268E3	-1.084999964E-1	-1.276999950E0	-1.133999974E-1
1.429310268E3	4.220999777E-1	4.343999922E-1	-6.344000101E-1
1.430310268E3	-1.189000010E0	2.696999907E-1	-7.623999715E-1
1.431310268E3	9.569999576E-2	-4.102999866E-1	1.066999957E-1
1.432310268E3	8.389999717E-2	4.212999940E-1	3.761000037E-1
1.433310268E3	3.154999912E-1	-2.470999956E-1	1.757999957E-1
1.434310268E3	-7.259999961E-2	-1.886999905E-1	-1.260000002E-2
1.435310268E3	-1.749999970E-1	3.707999885E-1	-1.084999964E-1
1.436310268E3	-5.920000002E-2	-1.501999944E-1	1.488000005E-1
1.437310268E3	4.791999757E-1	-1.049999986E-2	-8.700000122E-3
1.438310268E3	9.420000017E-2	-6.709999591E-2	2.856000066E-1
1.439310268E3	1.550000012E-1	2.529999986E-2	1.208999977E-1
1.440310268E3	2.223999947E-1	-4.235000014E-1	6.469999999E-2
1.441310268E3	4.836999774E-1	-5.715000033E-1	9.879999608E-2
1.442310268E3	-8.399999700E-3	-4.563999772E-1	8.119999617E-2
1.443310268E3	-6.543999910E-1	-1.143999934E0	3.743999958E0
1.444310268E3	5.318999887E-1	4.479999840E-2	1.950000040E-2
1.445310268E3	-9.152999520E-1	6.086999774E-1	-2.870999873E-1
1.446310268E3	5.019999743E-1	1.879999973E-2	1.819999889E-2
1.447310268E3	-1.185999960E-1	2.001999915E-1	-4.661999941E-1
1.448310268E3	6.799999624E-3	-2.569999918E-2	4.360000044E-2
1.449310268E3	3.729999810E-2	2.589999884E-2	2.479999885E-2
1.450310268E3	-1.526099920E0	1.458799958E0	-1.201200008E0
1.451310268E3	-2.280999869E-1	8.020000160E-2	-8.519999683E-2
1.452310268E3	4.989999905E-2	1.599999890E-2	1.922999918E-1
1.453310268E3	2.599000037E-1	-1.990000010E-1	1.907999963E-1
1.454310268E3	-3.720000014E-2	2.859999985E-2	3.399999812E-2
1.455310268E3	1.464999914E-1	8.100000210E-3	1.942999959E-1
1.456310268E3	9.269999713E-2	-6.599999964E-2	4.279999807E-2
1.457310268E3	-1.365000010E-1	7.979999483E-2	5.189999938E-2
1.458310268E3	4.299999680E-3	-3.139999881E-2	8.229999989E-2
1.459310268E3	-3.999999911E-2	3.379999846E-2	9.629999846E-2
1.460310268E3	1.889999956E-2	-3.700000001E-3	9.160000086E-2
1.461310268E3	-1.372999996E-1	1.299999934E-2	-5.519999936E-2
1.462310268E3	-1.449999958E-1	-1.779000014E-1	3.559999913E-2
1.463310268E3	4.490000010E-2	-1.234999970E-1	2.915000021E-1
1.464310268E3	4.202999771E-1	-8.379999548E-2	2.211999893E-1
1.465310268E3	-1.099599957E0	7.290999889E-1	3.312999904E-1
1.466310268E3	-3.700000048E-2	5.590000004E-2	-5.680000037E-2
1.467310268E3	-1.684999913E-1	-6.079999730E-2	1.009999961E-2
1.468310268E3	2.929999866E-2	7.159999758E-2	-4.059999809E-2
1.469310268E3	9.649999440E-2	6.409999728E-2	-3.179999813E-2
1.470310268E3	1.074999943E-1	1.225999966E-1	-4.739999771E-2
1.471310268E3	-2.824999988E-1	9.910000116E-2	-3.519999981E-2
1.472310268E3	3.689999878E-2	-3.549999744E-2	-2.309999987E-2
1.473310268E3	-5.112000108E-1	2.201000005E-1	-8.269999921E-2
1.474310268E3	-1.028999984E-1	2.565999925E-1	-1.222999990E-1
1.475310268E3	1.075999960E-1	-2.604999840E-1	3.413999975E-1
1.476310268E3	-9.499999881E-2	4.449999705E-2	-1.322999895E-1
1.477310268E3	3.360999823E-1	-3.041999936E-1	3.247999847E-1
1.478310268E3	-4.711999893E-1	1.150000002E-2	3.070000000E-2
1.479310268E3	-4.309999943E-2	1.684999913E-1	-4.539999738E-2
1.480310268E3	-4.736999869E-1	-4.494999945E-1	5.878999829E-1
1.481310268E3	1.641999930E-1	-1.542000026E-1	-2.149999887E-2
1.482310268E3	3.119999915E-2	-2.854199886E0	2.982599974E0
1.483310268E3	-1.510599971E0	1.102499962E0	5.712000132E-1
1.484310268E3	-6.201999784E-1	1.122599959E0	-2.428400040E0
1.485310268E3	-4.682999849E-1	-3.037999868E-1	1.064999998E-1
1.486310268E3	-6.473999619E-1	-4.179999828E-1	1.845099926E0
1.487310268E3	6.800999641E-1	-3.729999810E-2	6.669999659E-2
1.488310268E3	-2.126999944E-1	-1.234200001E0	3.000000026E-3
1.489310268E3	8.413999677E-1	3.349999785E-1	-2.645200014E0
1.490310268E3	5.187000036E-1	1.147999987E-1	1.237100005E0
1.491310268E3	-3.655999899E-1	1.298999935E-1	-8.060999513E-1
1.492310268E3	3.003999889E-1	-7.728999853E-1	6.085000038E-1
1.493310268E3	1.425999999E-1	-3.060999811E-1	1.288999915E-1
1.494310268E3	-2.409999967E-1	6.265000105E-1	5.468999743E-1
1.495310268E3	1.063799977E0	-1.218799949E0	1.785799980E0
1.496310268E3	-5.025300026E0	1.168399930E0	4.991199970E0
1.497310268E3	-5.009999871E-2	1.323999912E-1	-3.379999846E-2
1.498310268E3	-6.879999489E-2	-2.489999868E-2	-3.350000083E-2
1.499310268E3	1.134999990E-1	-7.379999757E-2	1.343999952E-1
1.500310268E3	-1.879999973E-2	1.190999970E-1	1.328999996E-1
1.501310268E3	-5.590000004E-2	-2.429999970E-2	1.328999996E-1
1.502310268E3	-4.409999773E-2	6.999999750E-4	1.319999993E-1
1.503310268E3	-7.530000061E-2	4.389999807E-2	-3.529999778E-2
1.504310268E3	9.429999441E-2	-4.289999977E-2	-3.299999982E-2
1.505310268E3	9.499999881E-2	-1.059999969E-2	-3.399999812E-2
1.506310268E3	-5.020000041E-2	1.006999984E-1	1.339000016E-1
1.507310268E3	-4.399999976E-2	-6.000000052E-3	1.322000027E-1
1.508310268E3	-5.689999834E-2	1.435000002E-1	-3.399999812E-2
1.509310268E3	-4.369999841E-2	-2.449999936E-2	-3.390000015E-2
1.510310268E3	-4.329999909E-2	1.017000005E-1	-3.289999813E-2
1.511310268E3	-4.969999939E-2	-4.279999807E-2	1.333999932E-1
1.512310268E3	-3.639999777E-2	-5.929999799E-2	-3.280000016E-2
1.513310268E3	-1.753000021E-1	1.140000001E-1	1.331000030E-1
1.514310268E3	-1.879999973E-2	1.254999936E-1	-3.390000015E-2
1.515310268E3	1.129899979E0	7.100999951E-1	1.294000000E-1
1.516310268E3	-1.562999934E-1	-3.689999878E-2	1.351999938E-1
1.517310268E3	-1.508999914E-1	1.878999919E-1	-3.350000083E-2
1.518310268E3	1.573999971E-1	-3.070000000E-2	1.349999905E-1
1.519310268E3	6.699999794E-3	4.999999655E-4	-3.269999847E-2
1.520310268E3	4.439999908E-2	3.999999899E-4	-3.350000083E-2
1.521310268E3	1.239999942E-2	-4.999999702E-2	-3.130000085E-2
1.522310268E3	-6.199999712E-3	-3.130000085E-2	-3.139999881E-2
1.523310268E3	5.799999926E-3	-2.559999935E-2	-3.189999983E-2
1.524310268E3	-1.377999932E-1	-3.709999844E-2	1.348000020E-1
1.525310268E3	2.549999952E-2	-3.779999912E-2	1.347000003E-1
1.526310268E3	-1.065999940E-1	1.004000008E-1	-3.179999813E-2
1.527310268E3	2.579999901E-2	-5.029999837E-2	-3.159999847E-2
1.528310268E3	1.939999871E-2	4.086000025E-1	1.356000006E-1
1.529310268E3	6.899999920E-3	-1.169999968E-2	-3.229999915E-2
1.530310268E3	-6.000000052E-3	1.383000016E-1	-3.179999813E-2
1.531310268E3	2.559999935E-2	-5.509999767E-2	-3.139999881E-2
1.532310268E3	3.810000047E-2	-4.949999973E-2	1.348000020E-1
1.533310268E3	2.499999851E-2	-4.319999740E-2	-3.179999813E-2
1.534310268E3	1.269999985E-2	-3.109999932E-2	1.347000003E-1
1.535310268E3	2.520000003E-2	-5.549999699E-2	-3.139999881E-2
1.536310268E3	6.599999964E-3	1.322000027E-1	1.347000003E-1
1.537310268E3	6.000000052E-3	-5.649999902E-2	-3.089999966E-2
1.538310268E3	3.170000017E-2	-4.349999875E-2	-3.189999983E-2
1.539310268E3	2.419999987E-2	-4.820000008E-2	1.349999905E-1
1.540310268E3	9.999999747E-5	1.004000008E-1	-1.876999885E-1
1.541310268E3	6.319999695E-2	-4.919999838E-2	-3.229999915E-2
1.542310268E3	6.000000052E-3	-5.649999902E-2	-3.089999966E-2
1.543310268E3	1.229999959E-2	-3.769999743E-2	-3.170000017E-2
1.544310268E3	-5.699999630E-3	-4.319999740E-2	-3.109999932E-2
1.545310268E3	1.879999973E-2	8.829999715E-2	-3.079999983E-2
1.546310268E3	2.579999901E-2	1.199999973E-1	1.345999986E-1
1.547310268E3	3.769999743E-2	1.004000008E-1	-3.159999847E-2
1.548310268E3	2.510000020E-2	8.819999546E-2	1.357000023E-1
1.549310268E3	2.520000003E-2	-6.889999658E-2	-3.089999966E-2
1.550310268E3	6.199999712E-3	-3.150000051E-2	-3.170000017E-2
1.551310268E3	-1.441999972E-1	-7.549999654E-2	-3.039999865E-2
1.552310268E3	5.899999756E-3	-2.539999969E-2	1.347000003E-1
1.553310268E3	3.739999980E-2	-5.649999902E-2	-3.159999847E-2
1.554310268E3	5.059999973E-2	9.479999542E-2	1.349999905E-1
1.555310268E3	-1.506000012E-1	-2.499999851E-2	-3.189999983E-2
1.556310268E3	-1.200000010E-2	-4.309999943E-2	-1.877999902E-1
1.557310268E3	3.189999983E-2	-1.769999973E-2	-3.269999847E-2
1.558310268E3	1.699000001E-1	-3.689999878E-2	1.349000037E-1
1.559310268E3	-2.459999919E-2	-3.089999966E-2	-3.099999949E-2
1.560310268E3	9.999999747E-5	1.269999985E-2	-3.289999813E-2
1.561310268E3	1.909999922E-2	1.572999954E-1	1.336999983E-1
1.562310268E3	-1.249999925E-2	-6.199999712E-3	-3.199999779E-2
1.563310268E3	6.300000008E-3	-1.249999925E-2	1.342999935E-1
1.564310268E3	1.869999990E-2	-1.239999942E-2	-3.260000050E-2
1.565310268E3	3.799999878E-2	-5.899999756E-3	-3.319999948E-2
1.566310268E3	-1.125999987E-1	1.136000007E-1	-3.219999745E-2
1.567310268E3	2.489999868E-2	-1.889999956E-2	1.340999901E-1
1.568310268E3	9.999999747E-5	-1.229999959E-2	-3.219999745E-2
1.569310268E3	-1.136999950E-1	-1.769999973E-2	-3.289999813E-2
1.570310268E3	1.695999950E-1	-1.229999959E-2	-3.240000084E-2
1.571310268E3	-1.315999925E-1	-3.130000085E-2	1.344999969E-1
1.572310268E3	4.399999976E-2	8.789999783E-2	-3.130000085E-2
1.573310268E3	3.759999946E-2	-1.380999982E-1	-2.850000001E-2
1.574310268E3	3.999999899E-4	-1.159999985E-2	1.402999908E-1
1.575310268E3	1.869999990E-2	1.252000034E-1	-2.579999901E-2
1.576310268E3	6.199999712E-3	-6.199999712E-3	-2.669999935E-2
1.577310268E3	1.310000010E-2	-2.379999869E-2	-2.609999850E-2
1.578310268E3	2.529999986E-2	4.999999655E-4	-2.749999985E-2
1.579310268E3	1.879999973E-2	1.249999925E-2	-2.779999934E-2
1.580310268E3	-9.989999980E-2	-2.379999869E-2	-2.699999884E-2
1.581310268E3	-1.440999955E-1	1.321000010E-1	-2.599999867E-2
1.582310268E3	2.489999868E-2	-1.279999968E-2	-2.679999918E-2
1.583310268E3	6.399999838E-3	-1.850000024E-2	1.403999925E-1
1.584310268E3	3.189999983E-2	1.079999954E-1	1.412999928E-1
1.585310268E3	1.632999927E-1	1.257999986E-1	1.410000026E-1
1.586310268E3	1.939999871E-2	-9.299999475E-2	-2.989999950E-2
1.587310268E3	2.510000020E-2	3.779999912E-2	1.375999898E-1
1.588310268E3	-1.438999921E-1	3.209999949E-2	1.380999982E-1
1.589310268E3	5.700000003E-2	1.394999921E-1	1.393000036E-1
1.590310268E3	2.510000020E-2	-3.130000085E-2	-2.599999867E-2
1.591310268E3	2.499999851E-2	6.199999712E-3	-2.769999951E-2
1.592310268E3	3.799999878E-2	1.326999962E-1	-2.659999952E-2
1.593310268E3	4.999999655E-4	-9.939999878E-2	-2.919999883E-2
1.594310268E3	-1.809999906E-2	-1.169999968E-2	-3.170000017E-2
1.595310268E3	-5.599999800E-3	-2.419999987E-2	1.349999905E-1
1.596310268E3	4.999999655E-4	1.194999963E-1	1.351999938E-1
1.597310268E3	-1.289999951E-2	-6.849999726E-2	-2.999999933E-2
1.598310268E3	-1.623999923E-1	1.262999922E-1	-3.150000051E-2
1.599310268E3	1.564999968E-1	8.720000088E-2	1.362999976E-1
1.600310268E3	0.000000000E0	-2.499999851E-2	-3.179999813E-2
1.601310268E3	-6.799999624E-3	-3.209999949E-2	1.351999938E-1
1.602310268E3	-3.109999932E-2	1.131999940E-1	1.361999959E-1
1.603310268E3	-1.559000015E-1	-1.613999903E-1	-2.669999935E-2
1.604310268E3	-1.061000004E-1	6.699999794E-3	1.369999945E-1
1.605310268E3	-9.999999404E-2	-5.899999756E-3	-2.939999849E-2
1.606310268E3	4.429999739E-2	6.499999668E-3	-2.929999866E-2
1.607310268E3	4.539999738E-2	1.199999941E-3	1.374000013E-1
1.608310268E3	6.279999763E-2	-6.099999882E-3	-2.960000001E-2
1.609310268E3	6.329999864E-2	6.699999794E-3	-2.999999933E-2
1.610310268E3	2.066999972E-1	1.850000024E-2	-2.989999950E-2
1.611310268E3	6.260000169E-2	0.000000000E0	-2.979999967E-2
1.612310268E3	1.889999956E-2	-1.315999925E-1	-2.889999934E-2
1.613310268E3	-1.182999983E-1	3.189999983E-2	-2.979999967E-2
1.614310268E3	3.779999912E-2	6.300000008E-3	-2.909999900E-2
1.615310268E3	5.069999769E-2	2.549999952E-2	1.365000010E-1
1.616310268E3	5.009999871E-2	-6.300000008E-3	-2.919999883E-2
1.617310268E3	-8.709999919E-2	1.310000010E-2	-3.039999865E-2
1.618310268E3	6.309999526E-2	6.499999668E-3	-2.999999933E-2
1.619310268E3	-1.180999950E-1	1.329999976E-2	1.372999996E-1
1.620310268E3	3.150000051E-2	-1.860000007E-2	-2.819999866E-2
1.621310268E3	2.569999918E-2	-5.699999630E-3	-2.829999849E-2
1.622310268E3	3.830000013E-2	-1.819999889E-2	-2.840000018E-2
1.623310268E3	6.329999864E-2	-1.829999872E-2	-2.929999866E-2
1.624310268E3	-1.118000001E-1	7.999999798E-4	-2.919999883E-2
1.625310268E3	-1.132999957E-1	6.000000052E-3	-2.929999866E-2
1.626310268E3	3.150000051E-2	1.889999956E-2	-2.919999883E-2
1.627310268E3	5.719999969E-2	1.310000010E-2	-2.999999933E-2
1.628310268E3	3.779999912E-2	1.260000002E-2	-2.929999866E-2
1.629310268E3	-1.122999936E-1	3.999999899E-4	-2.919999883E-2
1.630310268E3	5.700000003E-2	1.919999905E-2	-3.009999916E-2
1.631310268E3	4.449999705E-2	1.919999905E-2	-2.969999984E-2
1.632310268E3	4.429999739E-2	1.899999939E-2	-2.969999984E-2
1.633310268E3	-1.255999953E-1	3.130000085E-2	-2.950000018E-2
1.634310268E3	6.369999796E-2	-5.399999674E-3	1.368999928E-1
1.635310268E3	3.229999915E-2	-3.680000082E-2	1.389999986E-1
1.636310268E3	5.709999800E-2	1.260000020E-1	-2.869999968E-2
1.637310268E3	-9.979999810E-2	1.385999918E-1	1.375000030E-1
1.638310268E3	8.289999515E-2	1.331000030E-1	1.368999928E-1
1.639310268E3	-9.369999915E-2	-1.878999919E-1	-2.889999934E-2
1.640310268E3	1.929999888E-2	-3.720000014E-2	1.394999921E-1
1.641310268E3	-1.067999974E-1	-1.979999989E-2	-2.879999951E-2
1.642310268E3	4.979999736E-2	-1.279999968E-2	-2.899999917E-2
1.643310268E3	5.119999871E-2	-2.410000004E-2	1.378999949E-1
1.644310268E3	3.759999946E-2	1.002999991E-1	1.393999904E-1
1.645310268E3	5.009999871E-2	-4.389999807E-2	-2.799999900E-2
1.646310268E3	-1.001999974E-1	-3.119999915E-2	1.379999965E-1
1.647310268E3	1.999999955E-2	-5.299999844E-3	1.384999901E-1
1.648310268E3	-8.810000122E-2	-6.300000101E-2	-2.799999900E-2
1.649310268E3	2.609999850E-2	-4.309999943E-2	1.393999904E-1
1.650310268E3	-1.194999963E-1	-5.040000007E-2	-2.740000002E-2
1.651310268E3	3.759999946E-2	1.191999987E-1	-2.779999934E-2
1.652310268E3	3.749999776E-2	1.441999972E-1	-2.859999985E-2
1.653310268E3	7.609999925E-2	-4.939999804E-2	1.378999949E-1
1.654310268E3	5.059999973E-2	-3.099999949E-2	1.381999999E-1
1.655310268E3	2.060000040E-2	-5.489999801E-2	-2.659999952E-2
1.656310268E3	2.579999901E-2	-4.329999909E-2	-2.719999850E-2
1.657310268E3	-1.057999954E-1	-5.559999868E-2	-2.769999951E-2
1.658310268E3	3.159999847E-2	-5.619999766E-2	-2.699999884E-2
1.659310268E3	5.079999939E-2	-3.700000048E-2	1.383000016E-1
1.660310268E3	-1.006999984E-1	1.000999957E-1	1.387999952E-1
1.661310268E3	4.459999874E-2	6.969999522E-2	1.402999908E-1
1.662310268E3	4.509999976E-2	-6.159999967E-2	-2.730000019E-2
1.663310268E3	3.830000013E-2	1.197999939E-1	-2.779999934E-2
1.664310268E3	5.040000007E-2	-6.879999489E-2	-2.719999850E-2
1.665310268E3	-1.056999937E-1	-6.809999794E-2	-2.719999850E-2
1.666310268E3	4.409999773E-2	1.005999967E-1	-2.740000002E-2
1.667310268E3	5.079999939E-2	9.479999542E-2	-2.740000002E-2
1.668310268E3	4.459999874E-2	-6.199999899E-2	-2.719999850E-2
1.669310268E3	3.299999982E-2	-6.109999865E-2	1.397999972E-1
1.670310268E3	2.559999935E-2	-7.479999959E-2	-2.609999850E-2
1.671310268E3	3.810000047E-2	1.008000001E-1	-2.719999850E-2
1.672310268E3	-1.367999911E-1	8.280000091E-2	-2.589999884E-2
1.673310268E3	-1.193000004E-1	1.191999987E-1	-2.779999934E-2
1.674310268E3	4.459999874E-2	-5.579999834E-2	1.392000020E-1
1.675310268E3	4.339999706E-2	8.739999682E-2	-2.689999901E-2
1.676310268E3	2.659999952E-2	-7.379999757E-2	1.404999942E-1
1.677310268E3	3.130000085E-2	1.128999963E-1	-2.740000002E-2
1.678310268E3	5.099999905E-2	9.499999881E-2	-2.749999985E-2
1.679310268E3	4.439999908E-2	6.949999928E-2	-2.630000003E-2
1.680310268E3	-1.252999902E-1	-4.999999702E-2	-2.719999850E-2
1.681310268E3	2.549999952E-2	1.008000001E-1	-2.669999935E-2
1.682310268E3	5.040000007E-2	2.261999995E-1	-2.649999969E-2
1.683310268E3	4.499999806E-2	1.201999933E-1	-2.809999883E-2
1.684310268E3	6.969999522E-2	1.008999944E-1	-2.829999849E-2
1.685310268E3	5.749999732E-2	-5.539999902E-2	-2.789999917E-2
1.686310268E3	-1.314999908E-1	-6.250000000E-2	-2.649999969E-2
1.687310268E3	3.139999881E-2	8.150000125E-2	-2.630000003E-2
1.688310268E3	4.449999705E-2	-5.579999834E-2	-2.740000002E-2
1.689310268E3	4.329999909E-2	-1.919999905E-2	1.380999982E-1
1.690310268E3	3.229999915E-2	1.013000011E-1	-2.699999884E-2
1.691310268E3	2.679999918E-2	-5.489999801E-2	1.397999972E-1
1.692310268E3	5.069999769E-2	8.819999546E-2	-2.719999850E-2
1.693310268E3	-1.001999974E-1	-4.369999841E-2	-2.829999849E-2
1.694310268E3	5.700000003E-2	-4.329999909E-2	-2.829999849E-2
1.695310268E3	2.630000003E-2	-3.659999743E-2	1.392000020E-1
1.696310268E3	-9.369999915E-2	-4.979999736E-2	-2.829999849E-2
1.697310268E3	-1.244999990E-1	-6.179999933E-2	-2.679999918E-2
1.698310268E3	3.179999813E-2	-7.479999959E-2	-2.630000003E-2
1.699310268E3	4.339999706E-2	-3.179999813E-2	-2.819999866E-2
1.700310268E3	4.509999976E-2	9.519999474E-2	-2.730000019E-2
1.701310268E3	-1.309999973E-1	6.979999691E-2	-2.569999918E-2
1.702310268E3	5.079999939E-2	1.261000037E-1	-2.850000001E-2
1.703310268E3	3.729999810E-2	-5.669999868E-2	-2.719999850E-2
1.704310268E3	6.920000166E-2	-6.260000169E-2	-2.809999883E-2
1.705310268E3	4.429999739E-2	1.008000001E-1	-2.740000002E-2
1.706310268E3	3.039999865E-2	9.319999814E-2	-2.669999935E-2
1.707310268E3	-1.119999960E-1	-6.179999933E-2	1.393999904E-1
1.708310268E3	5.659999698E-2	1.005999967E-1	1.387999952E-1
1.709310268E3	3.099999949E-2	-2.529999986E-2	1.386999935E-1
1.710310268E3	6.319999695E-2	-8.739999682E-2	-2.699999884E-2
1.711310268E3	-1.131999940E-1	1.127000004E-1	-2.779999934E-2
1.712310268E3	-1.191999987E-1	8.779999614E-2	-2.669999935E-2
1.713310268E3	-8.850000054E-2	-7.599999756E-2	-2.759999968E-2
1.714310268E3	7.530000061E-2	1.002999991E-1	-2.850000001E-2
1.715310268E3	5.009999871E-2	-4.389999807E-2	-2.799999900E-2
1.716310268E3	1.764999926E-1	8.850000054E-2	1.404999942E-1
1.717310268E3	3.879999742E-2	-4.910000041E-2	1.392000020E-1
1.718310268E3	-1.112999991E-1	9.559999406E-2	-2.730000019E-2
1.719310268E3	6.889999658E-2	6.319999695E-2	-2.689999901E-2
1.720310268E3	3.859999776E-2	9.499999881E-2	-2.699999884E-2
1.721310268E3	5.700000003E-2	3.999999899E-4	1.369999945E-1
1.722310268E3	-9.420000017E-2	1.190999970E-1	-2.869999968E-2
1.723310268E3	5.619999766E-2	-9.339999408E-2	-2.649999969E-2
1.724310268E3	4.479999840E-2	-4.309999943E-2	-2.789999917E-2
1.725310268E3	-1.001999974E-1	-1.239999942E-2	-2.919999883E-2
1.726310268E3	-9.969999641E-2	-2.449999936E-2	-2.889999934E-2
1.727310268E3	3.799999878E-2	-1.840000041E-2	1.381999999E-1
1.728310268E3	-1.119999960E-1	-1.179999951E-2	-2.879999951E-2
1.729310268E3	-1.437999904E-1	-3.089999966E-2	-2.709999867E-2
1.730310268E3	4.619999975E-2	9.629999846E-2	-2.730000019E-2
1.731310268E3	5.059999973E-2	7.580000162E-2	1.397999972E-1
1.732310268E3	4.409999773E-2	5.099999905E-2	-2.559999935E-2
1.733310268E3	5.139999837E-2	5.719999969E-2	-2.609999850E-2
1.734310268E3	-1.062999964E-1	3.999999899E-4	-2.369999886E-2
1.735310268E3	1.249999925E-2	-3.139999881E-2	-2.089999989E-2
1.736310268E3	3.199999779E-2	-3.039999865E-2	1.449999958E-1
1.737310268E3	-1.059999987E-1	1.075999960E-1	-2.139999904E-2
1.738310268E3	3.199999779E-2	-3.049999848E-2	1.449999958E-1
1.739310268E3	6.939999759E-2	-3.099999949E-2	-2.909999900E-2
1.740310268E3	5.719999969E-2	-8.049999923E-2	1.395999938E-1
1.741310268E3	2.609999850E-2	7.000000030E-2	-2.569999918E-2
1.742310268E3	2.510000020E-2	8.150000125E-2	-2.609999850E-2
1.743310268E3	4.439999908E-2	-8.109999448E-2	1.401000023E-1
1.744310268E3	5.779999867E-2	-9.829999506E-2	-2.639999986E-2
1.745310268E3	-9.269999713E-2	7.479999959E-2	-2.719999850E-2
1.746310268E3	4.380000010E-2	1.065999940E-1	-2.759999968E-2
1.747310268E3	6.279999763E-2	2.194999903E-1	-2.669999935E-2
1.748310268E3	5.680000037E-2	-9.979999810E-2	-2.630000003E-2
1.749310268E3	-9.899999946E-2	-7.389999926E-2	-2.730000019E-2
1.750310268E3	1.239999942E-2	-1.193999946E-1	-2.389999852E-2
1.751310268E3	-1.257999986E-1	5.629999936E-2	-2.529999986E-2
1.752310268E3	6.260000169E-2	6.909999996E-2	-2.689999901E-2
1.753310268E3	4.409999773E-2	6.929999590E-2	-2.630000003E-2
1.754310268E3	3.139999881E-2	-8.150000125E-2	-2.609999850E-2
1.755310268E3	4.339999706E-2	-1.065999940E-1	1.410999894E-1
1.756310268E3	-1.246999949E-1	6.969999522E-2	1.406999975E-1
1.757310268E3	-8.150000125E-2	6.929999590E-2	-2.740000002E-2
1.758310268E3	5.189999938E-2	3.260000050E-2	1.362999976E-1
1.759310268E3	5.680000037E-2	2.999999851E-4	-2.960000001E-2
1.760310268E3	6.949999928E-2	-1.829999872E-2	-2.950000018E-2
1.761310268E3	5.669999868E-2	8.799999952E-2	-2.740000002E-2
1.762310268E3	1.899999939E-2	-6.870000064E-2	1.405999959E-1
1.763310268E3	-9.420000017E-2	-6.899999827E-2	-2.759999968E-2
1.764310268E3	5.020000041E-2	-7.530000061E-2	-2.699999884E-2
1.765310268E3	3.830000013E-2	-7.459999621E-2	1.400000006E-1
1.766310268E3	3.130000085E-2	-5.649999902E-2	-2.689999901E-2
1.767310268E3	3.170000017E-2	6.920000166E-2	-2.589999884E-2
1.768310268E3	4.429999739E-2	6.329999864E-2	1.404999942E-1
1.769310268E3	-1.118999943E-1	-8.689999580E-2	-2.639999986E-2
1.770310268E3	-9.919999540E-2	6.979999691E-2	-2.679999918E-2
1.771310268E3	-1.127000004E-1	-8.749999851E-2	1.402999908E-1
1.772310268E3	3.810000047E-2	4.399999976E-2	-2.510000020E-2
1.773310268E3	3.819999844E-2	-8.729999512E-2	-2.609999850E-2
1.774310268E3	3.759999946E-2	8.150000125E-2	1.401000023E-1
1.775310268E3	2.679999918E-2	-6.109999865E-2	1.400000006E-1
1.776310268E3	2.539999969E-2	-8.129999787E-2	-2.579999901E-2
1.777310268E3	6.309999526E-2	8.829999715E-2	-2.759999968E-2
1.778310268E3	2.559999935E-2	9.459999949E-2	-2.649999969E-2
1.779310268E3	3.810000047E-2	-8.109999448E-2	1.402999908E-1
1.780310268E3	1.329999976E-2	-6.830000132E-2	-2.589999884E-2
1.781310268E3	-1.319999993E-1	-8.799999952E-2	-2.559999935E-2
1.782310268E3	3.319999948E-2	-4.219999909E-2	1.391000003E-1
1.783310268E3	-8.100000024E-2	-1.200000010E-2	-2.989999950E-2
1.784310268E3	-9.369999915E-2	1.257999986E-1	-2.889999934E-2
1.785310268E3	5.609999970E-2	-2.529999986E-2	-2.879999951E-2
1.786310268E3	2.479999885E-2	-3.779999912E-2	-2.730000019E-2
1.787310268E3	4.499999806E-2	1.264999956E-1	1.383000016E-1
1.788310268E3	-7.539999485E-2	-1.889999956E-2	-2.989999950E-2
1.789310268E3	4.959999770E-2	-2.549999952E-2	-2.859999985E-2
1.790310268E3	-1.061999947E-1	-5.599999800E-2	-2.759999968E-2
1.791310268E3	-1.127000004E-1	6.929999590E-2	-2.630000003E-2
1.792310268E3	6.309999526E-2	5.709999800E-2	-2.649999969E-2
1.793310268E3	3.769999743E-2	-1.004000008E-1	1.410000026E-1
1.794310268E3	3.739999980E-2	6.250000000E-2	-2.579999901E-2
1.795310268E3	4.369999841E-2	6.250000000E-2	-2.599999867E-2
1.796310268E3	3.209999949E-2	-1.057999954E-1	-2.520000003E-2
1.797310268E3	1.860000007E-2	5.619999766E-2	-2.489999868E-2
1.798310268E3	4.409999773E-2	5.049999803E-2	-2.559999935E-2
1.799310268E3	4.429999739E-2	6.329999864E-2	1.404999942E-1
1.800310268E3	5.719999969E-2	6.300000101E-2	-2.649999969E-2
1.801310268E3	5.099999905E-2	-9.869999439E-2	-2.609999850E-2
1.802310268E3	3.810000047E-2	-9.359999746E-2	-2.589999884E-2
1.803310268E3	3.830000013E-2	5.729999766E-2	-2.559999935E-2
1.804310268E3	5.099999905E-2	-9.349999577E-2	-2.630000003E-2
1.805310268E3	-9.459999949E-2	4.969999939E-2	-2.620000020E-2
1.806310268E3	-1.116999984E-1	7.639999688E-2	1.400000006E-1
1.807310268E3	1.229999959E-2	8.760000020E-2	-2.579999901E-2
1.808310268E3	3.229999915E-2	-8.679999411E-2	-2.589999884E-2
1.809310268E3	5.020000041E-2	6.889999658E-2	1.401000023E-1
1.810310268E3	-9.380000085E-2	-8.139999956E-2	-2.719999850E-2
1.811310268E3	3.209999949E-2	7.599999756E-2	-2.609999850E-2
1.812310268E3	-1.061000004E-1	-9.369999915E-2	-2.630000003E-2
1.813310268E3	6.300000101E-2	5.049999803E-2	-2.620000020E-2
1.814310268E3	6.599999964E-3	3.799999878E-2	-2.369999886E-2
1.815310268E3	3.759999946E-2	-1.064999998E-1	-2.529999986E-2
1.816310268E3	3.849999979E-2	7.000000030E-2	-2.609999850E-2
1.817310268E3	5.629999936E-2	5.649999902E-2	-2.630000003E-2
1.818310268E3	4.490000010E-2	-9.939999878E-2	-2.589999884E-2
1.819310268E3	-1.255999953E-1	6.879999489E-2	-2.579999901E-2
1.820310268E3	4.989999905E-2	6.879999489E-2	-2.649999969E-2
1.821310268E3	3.839999810E-2	-1.370999962E-1	-2.410000004E-2
1.822310268E3	3.170000017E-2	6.300000101E-2	-2.559999935E-2
1.823310268E3	5.059999973E-2	5.659999698E-2	1.405999959E-1
1.824310268E3	-1.008000001E-1	-1.004000008E-1	-2.620000020E-2
1.825310268E3	4.429999739E-2	-9.349999577E-2	-2.609999850E-2
1.826310268E3	3.849999979E-2	7.000000030E-2	-2.609999850E-2
1.827310268E3	6.989999861E-2	5.119999871E-2	1.401000023E-1
1.828310268E3	5.099999905E-2	1.199999973E-1	1.383000016E-1
1.829310268E3	1.960000023E-2	9.479999542E-2	-2.630000003E-2
1.830310268E3	-1.441999972E-1	5.029999837E-2	1.421999931E-1
1.831310268E3	7.629999518E-2	8.320000023E-2	-2.789999917E-2
1.832310268E3	3.159999847E-2	-6.250000000E-2	-2.669999935E-2
1.833310268E3	4.479999840E-2	9.499999881E-2	1.393999904E-1
1.834310268E3	5.700000003E-2	1.009999961E-1	1.386999935E-1
1.835310268E3	1.310000010E-2	-1.061000004E-1	-2.439999953E-2
1.836310268E3	-1.052999943E-1	-9.209999442E-2	-2.639999986E-2
1.837310268E3	-1.065999940E-1	7.519999892E-2	-2.669999935E-2
1.838310268E3	4.389999807E-2	-7.530000061E-2	-2.669999935E-2
1.839310268E3	3.240000084E-2	6.369999796E-2	1.409000009E-1
1.840310268E3	-1.309999973E-1	3.089999966E-2	1.424999982E-1
1.841310268E3	3.280000016E-2	-5.509999767E-2	1.395999938E-1
1.842310268E3	5.139999837E-2	2.649999969E-2	-2.489999868E-2
1.843310268E3	5.020000041E-2	7.519999892E-2	-2.669999935E-2
1.844310268E3	1.329999976E-2	-6.830000132E-2	-2.589999884E-2
1.845310268E3	4.439999908E-2	4.399999976E-2	-1.823000014E-1
1.846310268E3	3.859999776E-2	1.768999994E-1	-2.419999987E-2
1.847310268E3	-8.709999919E-2	-1.120999977E-1	-2.620000020E-2
1.848310268E3	-1.185999960E-1	-1.128999963E-1	-2.510000020E-2
1.849310268E3	1.989999972E-2	6.369999796E-2	1.413999945E-1
1.850310268E3	-9.959999472E-2	3.839999810E-2	-2.559999935E-2
1.851310268E3	3.130000085E-2	-1.315999925E-1	-2.410000004E-2
1.852310268E3	3.139999881E-2	-1.004000008E-1	-2.539999969E-2
1.853310268E3	-1.193000004E-1	4.399999976E-2	-2.510000020E-2
1.854310268E3	3.130000085E-2	3.779999912E-2	-2.459999919E-2
1.855310268E3	3.879999742E-2	8.899999410E-2	-2.679999918E-2
1.856310268E3	1.919999905E-2	1.321000010E-1	-2.749999985E-2
1.857310268E3	-1.128999963E-1	2.520000003E-2	-2.459999919E-2
1.858310268E3	3.119999915E-2	6.099999882E-3	-2.329999954E-2
1.859310268E3	2.569999918E-2	6.999999750E-3	-2.309999987E-2
1.860310268E3	-1.123999953E-1	4.399999976E-2	-2.529999986E-2
1.861310268E3	3.070000000E-2	5.499999970E-3	-2.329999954E-2
1.862310268E3	3.799999878E-2	3.159999847E-2	1.419999897E-1
1.863310268E3	-9.449999779E-2	1.829999872E-2	-2.489999868E-2
1.864310268E3	5.700000003E-2	2.569999918E-2	-2.499999851E-2
1.865310268E3	-1.190999970E-1	6.399999838E-3	-2.349999920E-2
1.866310268E3	3.799999878E-2	-1.375999898E-1	1.424999982E-1
1.867310268E3	4.999999702E-2	-9.999999747E-5	1.428999901E-1
1.868310268E3	2.549999952E-2	3.999999899E-4	-2.279999852E-2
1.869310268E3	7.050000131E-2	8.229999989E-2	-2.769999951E-2
1.870310268E3	3.830000013E-2	-3.700000048E-2	-2.779999934E-2
1.871310268E3	5.029999837E-2	1.260000002E-2	-2.969999984E-2
1.872310268E3	3.720000014E-2	1.829999872E-2	-2.400000021E-2
1.873310268E3	3.729999810E-2	-3.999999899E-4	1.433999985E-1
1.874310268E3	-1.130999997E-1	2.489999868E-2	-2.449999936E-2
1.875310268E3	-1.061000004E-1	6.899999920E-3	-2.400000021E-2
1.876310268E3	5.020000041E-2	1.260000002E-2	-2.429999970E-2
1.877310268E3	5.049999803E-2	1.909999922E-2	-2.449999936E-2
1.878310268E3	5.119999871E-2	7.499999832E-3	1.424999982E-1
1.879310268E3	3.769999743E-2	9.999999747E-5	-2.329999954E-2
1.880310268E3	-1.190999970E-1	9.999999747E-5	-2.329999954E-2
1.881310268E3	4.449999705E-2	4.389999807E-2	1.412999928E-1
1.882310268E3	3.769999743E-2	1.260000002E-2	1.428000033E-1
1.883310268E3	-9.910000116E-2	-1.090000011E-2	1.430999935E-1
1.884310268E3	3.799999878E-2	6.699999794E-3	1.429999918E-1
1.885310268E3	2.529999986E-2	1.929999888E-2	-2.359999903E-2
1.886310268E3	-9.309999645E-2	1.999999955E-2	-2.499999851E-2
1.887310268E3	3.769999743E-2	1.260000002E-2	-2.379999869E-2
1.888310268E3	3.819999844E-2	6.999999750E-4	-2.329999954E-2
1.889310268E3	-1.247999966E-1	6.899999920E-3	1.432999969E-1
1.890310268E3	-1.245999932E-1	-1.139999926E-2	-2.259999886E-2
1.891310268E3	-1.187999994E-1	-1.200000010E-2	-2.269999869E-2
1.892310268E3	-1.190999970E-1	1.889999956E-2	-2.410000004E-2
1.893310268E3	5.700000003E-2	-1.169999968E-2	-2.339999937E-2
1.894310268E3	3.150000051E-2	-1.692000031E-1	-2.249999903E-2
1.895310268E3	5.719999969E-2	1.349999942E-2	-2.449999936E-2
1.896310268E3	5.029999837E-2	-1.860000007E-2	-2.290000021E-2
1.897310268E3	3.179999813E-2	-5.599999800E-2	-2.699999884E-2
1.898310268E3	2.589999884E-2	5.099999905E-2	1.416999996E-1
1.899310268E3	5.089999735E-2	6.390000135E-2	-2.630000003E-2
1.900310268E3	2.489999868E-2	4.999999702E-2	-2.489999868E-2
1.901310268E3	-8.689999580E-2	5.739999935E-2	1.398999989E-1
